{
    "resourceType": "Bundle",
    "id": "bundle-transaction",
    "meta": {
        "lastUpdated": "2014-08-18T01:43:30Z"
    },
    "type": "transaction",
    "entry": [
        {
            "fullUrl": "urn:uuid:61ebe359-bfdc-4613-8bf2-c5e300945f0a",
            "resource": {
                "resourceType": "Coverage",
                "id": "AA87654",
                "contained": [
                    {
                        "resourceType": "Organization",
                        "id": "payer",
                        "identifier": [
                            {
                                "system": "http://hl7.org/fhir/sid/us-npi",
                                "value": "0123456789"
                            }
                        ],
                        "active": true,
                        "name": "New Health Plan",
                        "endpoint": [
                            {
                                "reference": "http://example.org/new-payer/fhir"
                            }
                        ]
                    }
                ],
                "identifier": [
                    {
                        "system": null,
                        "value": "234567"
                    }
                ],
                "status":,
                "beneficiary": {
                    "reference": ""
                },
                "payor": [
                    {
                        "reference": "#payer"
                    }
                ]
            },
            "request": {
                "method": "POST",
                "url": "Coverage"
            }
        },
        {
            "fullUrl": "urn:uuid:88f151c0-a954-468a-88bd-5ae15c08e059",
            "resource": {
                "resourceType": "Observation",
                "id": "example",
                "text": {
                    "status": "generated",
                    "div": "<div xmlns=\"http://www.w3.org/1999/xhtml\"><p><b>Generated Narrative with Details</b></p><p><b>id</b>: example</p><p><b>status</b>: final</p><p><b>category</b>: Vital Signs <span>(Details : {http://terminology.hl7.org/CodeSystem/observation-category code 'vital-signs' = 'Vital Signs', given as 'Vital Signs'})</span></p><p><b>code</b>: Body Weight <span>(Details : {LOINC code '29463-7' = 'Body weight', given as 'Body Weight'}; {LOINC code '3141-9' = 'Body weight Measured', given as 'Body weight Measured'}; {SNOMED CT code '27113001' = 'Body weight', given as 'Body weight'}; {http://acme.org/devices/clinical-codes code 'body-weight' = 'body-weight', given as 'Body Weight'})</span></p><p><b>subject</b>: <a>Patient/example</a></p><p><b>encounter</b>: <a>Encounter/example</a></p><p><b>effective</b>: 28/03/2016</p><p><b>value</b>: 185 lbs<span> (Details: UCUM code [lb_av] = 'lb_av')</span></p></div>"
                },
                "status":,
                "category": [
                    {
                        "coding": [
                            {
                                "system": "http://terminology.hl7.org/CodeSystem/observation-category",
                                "code": "vital-signs",
                                "display": "Vital Signs"
                            }
                        ]
                    }
                ],
                "code": {
                    "coding": [
                        {
                            "system": "http://loinc.org",
                            "code": "29463-7",
                            "display": "Body Weight"
                        },
                        {
                            "system": "http://loinc.org",
                            "code": "3141-9",
                            "display": "Body weight Measured"
                        },
                        {
                            "system": "http://snomed.info/sct",
                            "code": "27113001",
                            "display": "Body weight"
                        },
                        {
                            "system": "http://acme.org/devices/clinical-codes",
                            "code": "body-weight",
                            "display": "Body Weight"
                        }
                    ]
                },
                "subject": {
                    "reference": "Patient/example"
                },
                "encounter": {
                    "reference": "Encounter/example"
                },
                "effectiveDateTime": "2016-03-28",
                "valueQuantity": {
                    "value": 185,
                    "unit": "lbs",
                    "system": "http://unitsofmeasure.org",
                    "code": "[lb_av]"
                }
            },
            "request": {
                "method": "POST",
                "url": "Observation"
            }
        },
        {
            "fullUrl": "urn:uuid:61ebe359-bfdc-4613-8bf2-c5e300945f0c",
            "resource": {
                "resourceType": "Claim",
                "id": "100150",
                "text": {
                    "status": "generated",
                    "div": "<div xmlns=\"http://www.w3.org/1999/xhtml\">A human-readable rendering of the Oral Health Claim</div>"
                },
                "identifier": [
                    {
                        "system": "http://happyvalley.com/claim",
                        "value": "12345"
                    }
                ],
                "status": "active",
                "type": {
                    "coding": [
                        {
                            "system": "http://terminology.hl7.org/CodeSystem/claim-type",
                            "code": "oral"
                        }
                    ]
                },
                "use":,
                "patient": {
                    "reference": "Patient/1"
                },
                "created": "2014-08-16",
                "insurer": {
                    "reference": "Organization/2"
                },
                "provider": {
                    "reference": "Organization/1"
                },
                "priority": {
                    "coding": [
                        {
                            "code": "normal"
                        }
                    ]
                },
                "payee": {
                    "type": {
                        "coding": [
                            {
                                "code": "provider"
                            }
                        ]
                    }
                },
                "careTeam": [
                    {
                        "sequence": 1,
                        "provider": {
                            "reference": "Practitioner/example"
                        }
                    }
                ],
                "diagnosis": [
                    {
                        "sequence": 1,
                        "diagnosisCodeableConcept": {
                            "coding": [
                                {
                                    "code": "123456"
                                }
                            ]
                        }
                    }
                ],
                "insurance": [
                    {
                        "sequence": 1,
                        "focal": true,
                        "identifier": {
                            "system": "http://happyvalley.com/claim",
                            "value": "12345"
                        },
                        "coverage": {
                            "reference": "Coverage/9876B1"
                        }
                    }
                ],
                "item": [
                    {
                        "sequence": 1,
                        "careTeamSequence": [
                            1
                        ],
                        "productOrService": {
                            "coding": [
                                {
                                    "code": "1200"
                                }
                            ]
                        },
                        "servicedDate": "2014-08-16",
                        "unitPrice": {
                            "value": 135.57,
                            "currency": "USD"
                        },
                        "net": {
                            "value": 135.57,
                            "currency": "USD"
                        }
                    }
                ]
            },
            "request": {
                "method": "POST",
                "url": "Claim"
            }
        }
    ]
}
