{
    "resourceType": "Parameters",
    "id": "member-match-in",
    "parameter": [
        {
            "name": "MemberPatient",
            "resource": {
                "resourceType": "Patient",
                "id": "1",
                "identifier": [
                    {
                        "type": {
                            "coding": [
                                {
                                    "system": "http://terminology.hl7.org/CodeSystem/v2-0203",
                                    "code": "MB"
                                }
                            ]
                        },
                        "system": "http://example.org/old-payer/identifiers/member",
                        "value": "55678",
                        "assigner": {
                            "display": "Old Payer"
                        }
                    }
                ],
                "name": [
                    {
                        "use": "official",
                        "family": "Person",
                        "given": [
                            "Patricia",
                            "Ann"
                        ]
                    }
                ],
                "gender": "female",
                "birthDate": "1974-12-25"
            }
        },
        {
            "name": "OldCoverage",
            "resource": {
                "resourceType": "Coverage",
                "id": "9876B1",
                "contained": [
                    {
                        "resourceType": "Organization",
                        "id": "payer",
                        "identifier": [
                            {
                                "system": "http://hl7.org/fhir/sid/us-npi",
                                "value": "9876543210"
                            }
                        ],
                        "active": true,
                        "name": "Old Health Plan",
                        "endpoint": [
                            {
                                "reference": "http://example.org/old-payer/fhir"
                            }
                        ]
                    }
                ],
                "identifier": [
                    {
                        "system": "http://example.org/old-payer",
                        "value": "DH10001235"
                    }
                ],
                "status": "draft",
                "beneficiary": {
                    "reference": "Patient/1"
                },
                "period": {
                    "start": "2011-05-23",
                    "end": "2012-05-23"
                },
                "payor": [
                    {
                        "reference": "#payer"
                    }
                ],
                "class": [
                    {
                        "type": {
                            "coding": [
                                {
                                    "system": "http://terminology.hl7.org/CodeSystem/coverage-class",
                                    "code": "group"
                                }
                            ]
                        },
                        "value": "CB135"
                    },
                    {
                        "type": {
                            "coding": [
                                {
                                    "system": "http://terminology.hl7.org/CodeSystem/coverage-class",
                                    "code": "plan"
                                }
                            ]
                        },
                        "value": "B37FC"
                    },
                    {
                        "type": {
                            "coding": [
                                {
                                    "system": "http://terminology.hl7.org/CodeSystem/coverage-class",
                                    "code": "subplan"
                                }
                            ]
                        },
                        "value": "P7"
                    },
                    {
                        "type": {
                            "coding": [
                                {
                                    "system": "http://terminology.hl7.org/CodeSystem/coverage-class",
                                    "code": "class"
                                }
                            ]
                        },
                        "value": "SILVER"
                    }
                ]
            }
        },
        {
            "name": "NewCoverage",
            "resource": {
                "resourceType": "Coverage",
                "id": "AA87654",
                "contained": [
                    {
                        "resourceType": "Organization",
                        "id": "payer",
                        "identifier": [
                            {
                                "system": "http://hl7.org/fhir/sid/us-npi",
                                "value": "0123456789"
                            }
                        ],
                        "active": true,
                        "name": "New Health Plan",
                        "endpoint": [
                            {
                                "reference": "http://example.org/new-payer/fhir"
                            }
                        ]
                    }
                ],
                "identifier": [
                    {
                        "system": "http://example.org/new-payer/identifiers/coverage",
                        "value": "234567"
                    }
                ],
                "status": "active",
                "beneficiary": {
                    "reference": "Patient/1"
                },
                "payor": [
                    {
                        "reference": "#payer"
                    }
                ]
            }
        }
    ]
}
