{
    "resourceType": "Bundle",
    "type": "batch",
    "entry": [
        {
            "resource": {
                "resourceType": "Patient",
                "id": "patient0",
                "name": [
                    {
                        "family": "Zero",
                        "given": [
                            "Jane"
                        ]
                    }
                ],
                "gender": "female",
                "generalPractitioner": [
                    {
                        "reference": "Practitioner/practitioner0"
                    }
                ],
                "managingOrganization": {
                    "reference": "Organization/organization0"
                }
            },
            "request": {
                "method": "PUT",
                "url": "Patient/patient0"
            }
        },
        {
            "resource": {
                "resourceType": "Patient",
                "id": "patient1",
                "name": [
                    {
                        "family": "One",
                        "given": [
                            "John"
                        ]
                    }
                ],
                "gender": "male",
                "generalPractitioner": [
                    {
                        "reference": "Practitioner/practitioner0"
                    }
                ]
            },
            "request": {
                "method": "PUT",
                "url": "Patient/patient1"
            }
        },
        {
            "resource": {
                "resourceType": "Patient",
                "id": "patient2",
                "name": [
                    {
                        "family": "Two",
                        "given": [
                            "Jane"
                        ]
                    }
                ],
                "gender": "female",
                "generalPractitioner": [
                    {
                        "reference": "Practitioner/practitioner0"
                    }
                ],
                "managingOrganization": {
                    "reference": "Organization/organization1"
                }
            },
            "request": {
                "method": "PUT",
                "url": "Patient/patient2"
            }
        },
        {
            "resource": {
                "resourceType": "Patient",
                "id": "patient3",
                "name": [
                    {
                        "family": "Three",
                        "given": [
                            "John"
                        ]
                    }
                ],
                "gender": "male",
                "generalPractitioner": [
                    {
                        "reference": "Practitioner/practitioner1"
                    }
                ]
            },
            "request": {
                "method": "PUT",
                "url": "Patient/patient3"
            }
        },
        {
            "resource": {
                "resourceType": "Patient",
                "id": "patient4",
                "name": [
                    {
                        "family": "Four",
                        "given": [
                            "Jane"
                        ]
                    }
                ],
                "gender": "female",
                "generalPractitioner": [
                    {
                        "reference": "Practitioner/practitioner1"
                    }
                ],
                "managingOrganization": {
                    "reference": "Organization/organization2"
                }
            },
            "request": {
                "method": "PUT",
                "url": "Patient/patient4"
            }
        },
        {
            "resource": {
                "resourceType": "Patient",
                "id": "patient5",
                "name": [
                    {
                        "family": "Five",
                        "given": [
                            "John"
                        ]
                    }
                ],
                "gender": "male",
                "generalPractitioner": [
                    {
                        "reference": "Practitioner/practitioner2"
                    }
                ]
            },
            "request": {
                "method": "PUT",
                "url": "Patient/patient5"
            }
        },
        {
            "resource": {
                "resourceType": "Patient",
                "id": "patient6",
                "name": [
                    {
                        "family": "Six",
                        "given": [
                            "Jane"
                        ]
                    }
                ],
                "gender": "female",
                "generalPractitioner": [
                    {
                        "reference": "Practitioner/practitioner3"
                    }
                ]
            },
            "request": {
                "method": "PUT",
                "url": "Patient/patient6"
            }
        },
        {
            "resource": {
                "resourceType": "Patient",
                "id": "patient7",
                "name": [
                    {
                        "family": "Seven",
                        "given": [
                            "John"
                        ]
                    }
                ],
                "gender": "male",
                "generalPractitioner": [
                    {
                        "reference": "Practitioner/practitioner3"
                    }
                ]
            },
            "request": {
                "method": "PUT",
                "url": "Patient/patient7"
            }
        },
        {
            "resource": {
                "resourceType": "Group",
                "id": "group0",
                "type": "person",
                "actual": true,
                "member": [
                    {
                        "entity": {
                            "reference": "Patient/patient0"
                        }
                    },
                    {
                        "entity": {
                            "reference": "Patient/patient1"
                        }
                    },
                    {
                        "entity": {
                            "reference": "Patient/patient2"
                        }
                    },
                    {
                        "entity": {
                            "reference": "Patient/patient3"
                        }
                    }
                ]
            },
            "request": {
                "method": "PUT",
                "url": "Group/group0"
            }
        },
        {
            "resource": {
                "resourceType": "Group",
                "id": "group1",
                "type": "person",
                "actual": true,
                "member": [
                    {
                        "entity": {
                            "reference": "Patient/patient0"
                        }
                    },
                    {
                        "entity": {
                            "reference": "Patient/patient4"
                        }
                    },
                    {
                        "entity": {
                            "reference": "Patient/patient5"
                        }
                    }
                ]
            },
            "request": {
                "method": "PUT",
                "url": "Group/group1"
            }
        },
        {
            "resource": {
                "resourceType": "Group",
                "id": "group2",
                "type": "person",
                "actual": true,
                "member": [
                    {
                        "entity": {
                            "reference": "Patient/patient1"
                        }
                    },
                    {
                        "entity": {
                            "reference": "Patient/patient2"
                        }
                    },
                    {
                        "entity": {
                            "reference": "Patient/patient6"
                        }
                    }
                ]
            },
            "request": {
                "method": "PUT",
                "url": "Group/group2"
            }
        },
        {
            "resource": {
                "resourceType": "Group",
                "id": "group3",
                "type": "person",
                "actual": true,
                "member": [
                    {
                        "entity": {
                            "reference": "Patient/patient2"
                        }
                    },
                    {
                        "entity": {
                            "reference": "Patient/patient4"
                        }
                    },
                    {
                        "entity": {
                            "reference": "Patient/patient7"
                        }
                    }
                ]
            },
            "request": {
                "method": "PUT",
                "url": "Group/group3"
            }
        },
        {
            "resource": {
                "resourceType": "Group",
                "id": "group4",
                "type": "person",
                "actual": true,
                "member": [
                    {
                        "entity": {
                            "reference": "Patient/patient4"
                        }
                    },
                    {
                        "entity": {
                            "reference": "Patient/patient6"
                        }
                    }
                ]
            },
            "request": {
                "method": "PUT",
                "url": "Group/group4"
            }
        },
        {
            "resource": {
                "resourceType": "Organization",
                "id": "organization0",
                "name": "Zero",
                "alias": [
                    "zero"
                ]
            },
            "request": {
                "method": "PUT",
                "url": "Organization/organization0"
            }
        },
        {
            "resource": {
                "resourceType": "Organization",
                "id": "organization1",
                "name": "One",
                "alias": [
                    "one"
                ]
            },
            "request": {
                "method": "PUT",
                "url": "Organization/organization1"
            }
        },
        {
            "resource": {
                "resourceType": "Organization",
                "id": "organization2",
                "name": "Two",
                "alias": [
                    "two"
                ]
            },
            "request": {
                "method": "PUT",
                "url": "Organization/organization2"
            }
        },
        {
            "resource": {
                "resourceType": "Practitioner",
                "id": "practitioner0",
                "name": [
                    {
                        "given": [
                            "Zero"
                        ]
                    }
                ],
                "address": [
                    {
                        "state": "WA"
                    }
                ]
            },
            "request": {
                "method": "PUT",
                "url": "Practitioner/practitioner0"
            }
        },
        {
            "resource": {
                "resourceType": "Practitioner",
                "id": "practitioner1",
                "name": [
                    {
                        "given": [
                            "One"
                        ]
                    }
                ],
                "address": [
                    {
                        "state": "WA"
                    }
                ]
            },
            "request": {
                "method": "PUT",
                "url": "Practitioner/practitioner1"
            }
        },
        {
            "resource": {
                "resourceType": "Practitioner",
                "id": "practitioner2",
                "name": [
                    {
                        "given": [
                            "Two"
                        ]
                    }
                ],
                "address": [
                    {
                        "state": "WA"
                    }
                ]
            },
            "request": {
                "method": "PUT",
                "url": "Practitioner/practitioner2"
            }
        },
        {
            "resource": {
                "resourceType": "Practitioner",
                "id": "practitioner3",
                "name": [
                    {
                        "given": [
                            "Three"
                        ]
                    }
                ],
                "address": [
                    {
                        "state": "WA"
                    }
                ]
            },
            "request": {
                "method": "PUT",
                "url": "Practitioner/practitioner3"
            }
        },
        {
            "resource": {
                "resourceType": "Observation",
                "id": "observation0",
                "status": "amended",
                "code": {
                    "coding": [
                        {
                            "system": "LOINC",
                            "code": "2823-3"
                        }
                    ]
                },
                "valueQuantity": {
                    "value": 9.0
                },
                "subject": {
                    "reference": "Patient/patient0"
                },
                "performer": [
                    {
                        "reference": "Practitioner/practitioner0"
                    },
                    {
                        "reference": "Organization/organization0"
                    }
                ]
            },
            "request": {
                "method": "PUT",
                "url": "Observation/observation0"
            }
        },
        {
            "resource": {
                "resourceType": "Observation",
                "id": "observation1",
                "status": "amended",
                "code": {
                    "coding": [
                        {
                            "system": "LOINC",
                            "code": "24320-4"
                        }
                    ]
                },
                "valueQuantity": {
                    "value": 8.0
                },
                "subject": {
                    "reference": "Patient/patient1"
                },
                "performer": [
                    {
                        "reference": "Practitioner/practitioner0"
                    }
                ]
            },
            "request": {
                "method": "PUT",
                "url": "Observation/observation1"
            }
        },
        {
            "resource": {
                "resourceType": "Observation",
                "id": "observation2",
                "status": "amended",
                "code": {
                    "coding": [
                        {
                            "system": "LOINC",
                            "code": "24321-2"
                        }
                    ]
                },
                "valueQuantity": {
                    "value": 7.0
                },
                "subject": {
                    "reference": "Patient/patient1"
                },
                "performer": [
                    {
                        "reference": "Organization/organization1"
                    }
                ]
            },
            "request": {
                "method": "PUT",
                "url": "Observation/observation2"
            }
        },
        {
            "resource": {
                "resourceType": "Observation",
                "id": "observation3",
                "status": "amended",
                "code": {
                    "coding": [
                        {
                            "system": "LOINC",
                            "code": "70219-1"
                        }
                    ]
                },
                "valueQuantity": {
                    "value": 6.0
                },
                "subject": {
                    "reference": "Patient/patient2"
                },
                "performer": [
                    {
                        "reference": "Practitioner/practitioner0"
                    },
                    {
                        "reference": "Organization/organization1"
                    }
                ]
            },
            "request": {
                "method": "PUT",
                "url": "Observation/observation3"
            }
        },
        {
            "resource": {
                "resourceType": "Observation",
                "id": "observation4",
                "status": "amended",
                "code": {
                    "coding": [
                        {
                            "system": "LOINC",
                            "code": "24322-0"
                        }
                    ]
                },
                "valueQuantity": {
                    "value": 5.0
                },
                "subject": {
                    "reference": "Patient/patient3"
                },
                "performer": [
                    {
                        "reference": "Practitioner/practitioner1"
                    }
                ]
            },
            "request": {
                "method": "PUT",
                "url": "Observation/observation4"
            }
        },
        {
            "resource": {
                "resourceType": "Observation",
                "id": "observation5",
                "status": "amended",
                "code": {
                    "coding": [
                        {
                            "system": "LOINC",
                            "code": "24323-8"
                        }
                    ]
                },
                "valueQuantity": {
                    "value": 4.0
                },
                "subject": {
                    "reference": "Patient/patient4"
                },
                "performer": [
                    {
                        "reference": "Practitioner/practitioner1"
                    },
                    {
                        "reference": "Organization/organization2"
                    }
                ]
            },
            "request": {
                "method": "PUT",
                "url": "Observation/observation5"
            }
        },
        {
            "resource": {
                "resourceType": "Observation",
                "id": "observation6",
                "status": "amended",
                "code": {
                    "coding": [
                        {
                            "system": "LOINC",
                            "code": "54037-7"
                        }
                    ]
                },
                "valueQuantity": {
                    "value": 3.0
                },
                "subject": {
                    "reference": "Patient/patient4"
                },
                "performer": [
                    {
                        "reference": "Organization/organization2"
                    }
                ]
            },
            "request": {
                "method": "PUT",
                "url": "Observation/observation6"
            }
        },
        {
            "resource": {
                "resourceType": "Observation",
                "id": "observation7",
                "status": "amended",
                "code": {
                    "coding": [
                        {
                            "system": "LOINC",
                            "code": "57820-3"
                        }
                    ]
                },
                "valueQuantity": {
                    "value": 2.0
                },
                "subject": {
                    "reference": "Patient/patient5"
                },
                "performer": [
                    {
                        "reference": "Practitioner/practitioner2"
                    }
                ]
            },
            "request": {
                "method": "PUT",
                "url": "Observation/observation7"
            }
        },
        {
            "resource": {
                "resourceType": "Observation",
                "id": "observation8",
                "status": "amended",
                "code": {
                    "coding": [
                        {
                            "system": "LOINC",
                            "code": "60442-1"
                        }
                    ]
                },
                "valueQuantity": {
                    "value": 1.0
                },
                "subject": {
                    "reference": "Patient/patient6"
                },
                "performer": [
                    {
                        "reference": "Practitioner/practitioner3"
                    }
                ]
            },
            "request": {
                "method": "PUT",
                "url": "Observation/observation8"
            }
        },
        {
            "resource": {
                "resourceType": "Observation",
                "id": "observation9",
                "status": "amended",
                "code": {
                    "coding": [
                        {
                            "system": "LOINC",
                            "code": "79544-3"
                        }
                    ]
                },
                "valueQuantity": {
                    "value": 9.0
                },
                "subject": {
                    "reference": "Patient/patient7"
                },
                "performer": [
                    {
                        "reference": "Practitioner/practitioner3"
                    }
                ]
            },
            "request": {
                "method": "PUT",
                "url": "Observation/observation9"
            }
        },
        {
            "resource": {
                "resourceType": "DiagnosticReport",
                "id": "report0",
                "status": "final",
                "code": {
                    "coding": [
                        {
                            "system": "system",
                            "code": "code"
                        }
                    ]
                },
                "subject": {
                    "reference": "Patient/patient0"
                },
                "result": {
                    "reference": "Observation/observation0"
                }
            },
            "request": {
                "method": "PUT",
                "url": "DiagnosticReport/report0"
            }
        },
        {
            "resource": {
                "resourceType": "DiagnosticReport",
                "id": "report1",
                "status": "final",
                "code": {
                    "coding": [
                        {
                            "system": "system",
                            "code": "code"
                        }
                    ]
                },
                "subject": {
                    "reference": "Patient/patient1"
                },
                "result": {
                    "reference": "Observation/observation1"
                }
            },
            "request": {
                "method": "PUT",
                "url": "DiagnosticReport/report1"
            }
        },
        {
            "resource": {
                "resourceType": "DiagnosticReport",
                "id": "report2",
                "status": "final",
                "code": {
                    "coding": [
                        {
                            "system": "system",
                            "code": "code"
                        }
                    ]
                },
                "subject": {
                    "reference": "Patient/patient1"
                },
                "result": {
                    "reference": "Observation/observation2"
                }
            },
            "request": {
                "method": "PUT",
                "url": "DiagnosticReport/report2"
            }
        },
        {
            "resource": {
                "resourceType": "DiagnosticReport",
                "id": "report3",
                "status": "final",
                "code": {
                    "coding": [
                        {
                            "system": "system",
                            "code": "code"
                        }
                    ]
                },
                "subject": {
                    "reference": "Patient/patient2"
                },
                "result": {
                    "reference": "Observation/observation3"
                }
            },
            "request": {
                "method": "PUT",
                "url": "DiagnosticReport/report3"
            }
        },
        {
            "resource": {
                "resourceType": "DiagnosticReport",
                "id": "report4",
                "status": "final",
                "code": {
                    "coding": [
                        {
                            "system": "system",
                            "code": "code"
                        }
                    ]
                },
                "subject": {
                    "reference": "Patient/patient3"
                },
                "result": {
                    "reference": "Observation/observation4"
                }
            },
            "request": {
                "method": "PUT",
                "url": "DiagnosticReport/report4"
            }
        },
        {
            "resource": {
                "resourceType": "DiagnosticReport",
                "id": "report5",
                "status": "final",
                "code": {
                    "coding": [
                        {
                            "system": "system",
                            "code": "code"
                        }
                    ]
                },
                "subject": {
                    "reference": "Patient/patient4"
                },
                "result": {
                    "reference": "Observation/observation5"
                }
            },
            "request": {
                "method": "PUT",
                "url": "DiagnosticReport/report5"
            }
        },
        {
            "resource": {
                "resourceType": "DiagnosticReport",
                "id": "report6",
                "status": "final",
                "code": {
                    "coding": [
                        {
                            "system": "system",
                            "code": "code"
                        }
                    ]
                },
                "subject": {
                    "reference": "Patient/patient4"
                },
                "result": {
                    "reference": "Observation/observation6"
                }
            },
            "request": {
                "method": "PUT",
                "url": "DiagnosticReport/report6"
            }
        },
        {
            "resource": {
                "resourceType": "DiagnosticReport",
                "id": "report7",
                "status": "final",
                "code": {
                    "coding": [
                        {
                            "system": "system",
                            "code": "code"
                        }
                    ]
                },
                "subject": {
                    "reference": "Patient/patient5"
                },
                "result": {
                    "reference": "Observation/observation7"
                }
            },
            "request": {
                "method": "PUT",
                "url": "DiagnosticReport/report7"
            }
        },
        {
            "resource": {
                "resourceType": "DiagnosticReport",
                "id": "report8",
                "status": "final",
                "code": {
                    "coding": [
                        {
                            "system": "system",
                            "code": "code"
                        }
                    ]
                },
                "subject": {
                    "reference": "Patient/patient6"
                },
                "result": {
                    "reference": "Observation/observation8"
                }
            },
            "request": {
                "method": "PUT",
                "url": "DiagnosticReport/report8"
            }
        },
        {
            "resource": {
                "resourceType": "DiagnosticReport",
                "id": "report9",
                "status": "final",
                "code": {
                    "coding": [
                        {
                            "system": "system",
                            "code": "code"
                        }
                    ]
                },
                "subject": {
                    "reference": "Patient/patient7"
                },
                "result": {
                    "reference": "Observation/observation9"
                }
            },
            "request": {
                "method": "PUT",
                "url": "DiagnosticReport/report9"
            }
        },
        {
            "resource": {
                "resourceType": "Medication",
                "id": "medication0",
                "code": {
                    "coding": [
                        {
                            "system": "http://hl7.org/fhir/sid/ndc",
                            "code": "00",
                            "display": "zero"
                        }
                    ]
                }
            },
            "request": {
                "method": "PUT",
                "url": "Medication/medication0"
            }
        },
        {
            "resource": {
                "resourceType": "Medication",
                "id": "medication1",
                "code": {
                    "coding": [
                        {
                            "system": "http://hl7.org/fhir/sid/ndc",
                            "code": "01",
                            "display": "one"
                        }
                    ]
                }
            },
            "request": {
                "method": "PUT",
                "url": "Medication/medication1"
            }
        },
        {
            "resource": {
                "resourceType": "Medication",
                "id": "medication2",
                "code": {
                    "coding": [
                        {
                            "system": "http://hl7.org/fhir/sid/ndc",
                            "code": "02",
                            "display": "two"
                        }
                    ]
                }
            },
            "request": {
                "method": "PUT",
                "url": "Medication/medication2"
            }
        },
        {
            "resource": {
                "resourceType": "Medication",
                "id": "medication3",
                "code": {
                    "coding": [
                        {
                            "system": "http://hl7.org/fhir/sid/ndc",
                            "code": "03",
                            "display": "three"
                        }
                    ]
                }
            },
            "request": {
                "method": "PUT",
                "url": "Medication/medication3"
            }
        },
        {
            "resource": {
                "resourceType": "MedicationRequest",
                "id": "request0",
                "status": "active",
                "intent": "plan",
                "medicationReference": {
                    "reference": "Medication/medication0"
                },
                "subject": {
                    "reference": "Patient/patient0"
                },
                "requester": {
                    "agent": {
                        "reference": "Practitioner/practitioner0"
                    }
                }
            },
            "request": {
                "method": "PUT",
                "url": "MedicationRequest/request0"
            }
        },
        {
            "resource": {
                "resourceType": "MedicationRequest",
                "id": "request1",
                "status": "active",
                "intent": "plan",
                "medicationReference": {
                    "reference": "Medication/medication1"
                },
                "subject": {
                    "reference": "Patient/patient0"
                },
                "requester": {
                    "agent": {
                        "reference": "Practitioner/practitioner0"
                    }
                }
            },
            "request": {
                "method": "PUT",
                "url": "MedicationRequest/request1"
            }
        },
        {
            "resource": {
                "resourceType": "MedicationRequest",
                "id": "request2",
                "status": "active",
                "intent": "plan",
                "medicationReference": {
                    "reference": "Medication/medication2"
                },
                "subject": {
                    "reference": "Patient/patient0"
                },
                "requester": {
                    "agent": {
                        "reference": "Practitioner/practitioner0"
                    }
                }
            },
            "request": {
                "method": "PUT",
                "url": "MedicationRequest/request2"
            }
        },
        {
            "resource": {
                "resourceType": "MedicationRequest",
                "id": "request3",
                "status": "active",
                "intent": "plan",
                "medicationReference": {
                    "reference": "Medication/medication1"
                },
                "subject": {
                    "reference": "Patient/patient1"
                },
                "requester": {
                    "agent": {
                        "reference": "Practitioner/practitioner0"
                    }
                }
            },
            "request": {
                "method": "PUT",
                "url": "MedicationRequest/request3"
            }
        },
        {
            "resource": {
                "resourceType": "MedicationRequest",
                "id": "request4",
                "status": "active",
                "intent": "plan",
                "medicationReference": {
                    "reference": "Medication/medication2"
                },
                "subject": {
                    "reference": "Patient/patient2"
                },
                "requester": {
                    "agent": {
                        "reference": "Practitioner/practitioner0"
                    }
                }
            },
            "request": {
                "method": "PUT",
                "url": "MedicationRequest/request4"
            }
        },
        {
            "resource": {
                "resourceType": "MedicationRequest",
                "id": "request5",
                "status": "active",
                "intent": "plan",
                "medicationReference": {
                    "reference": "Medication/medication3"
                },
                "subject": {
                    "reference": "Patient/patient2"
                },
                "requester": {
                    "agent": {
                        "reference": "Practitioner/practitioner0"
                    }
                }
            },
            "request": {
                "method": "PUT",
                "url": "MedicationRequest/request5"
            }
        },
        {
            "resource": {
                "resourceType": "MedicationRequest",
                "id": "request6",
                "status": "active",
                "intent": "plan",
                "medicationReference": {
                    "reference": "Medication/medication2"
                },
                "subject": {
                    "reference": "Patient/patient4"
                },
                "requester": {
                    "agent": {
                        "reference": "Practitioner/practitioner1"
                    }
                }
            },
            "request": {
                "method": "PUT",
                "url": "MedicationRequest/request6"
            }
        },
        {
            "resource": {
                "resourceType": "MedicationRequest",
                "id": "request7",
                "status": "active",
                "intent": "plan",
                "medicationReference": {
                    "reference": "Medication/medication3"
                },
                "subject": {
                    "reference": "Patient/patient5"
                },
                "requester": {
                    "agent": {
                        "reference": "Practitioner/practitioner2"
                    }
                }
            },
            "request": {
                "method": "PUT",
                "url": "MedicationRequest/request7"
            }
        },
        {
            "resource": {
                "resourceType": "MedicationRequest",
                "id": "request8",
                "status": "active",
                "intent": "plan",
                "medicationReference": {
                    "reference": "Medication/medication1"
                },
                "subject": {
                    "reference": "Patient/patient6"
                },
                "requester": {
                    "agent": {
                        "reference": "Practitioner/practitioner3"
                    }
                }
            },
            "request": {
                "method": "PUT",
                "url": "MedicationRequest/request8"
            }
        },
        {
            "resource": {
                "resourceType": "MedicationRequest",
                "id": "request9",
                "status": "active",
                "intent": "plan",
                "medicationReference": {
                    "reference": "Medication/medication3"
                },
                "subject": {
                    "reference": "Patient/patient6"
                },
                "requester": {
                    "agent": {
                        "reference": "Practitioner/practitioner3"
                    }
                }
            },
            "request": {
                "method": "PUT",
                "url": "MedicationRequest/request9"
            }
        },
        {
            "resource": {
                "resourceType": "MedicationDispense",
                "id": "dispense0",
                "status": "completed",
                "medicationReference": {
                    "reference": "Medication/medication0"
                },
                "subject": {
                    "reference": "Patient/patient0"
                },
                "performer": [
                    {
                        "actor": {
                            "reference": "Practitioner/practitioner0"
                        }
                    }
                ],
                "authorizingPrescription": [
                    {
                        "reference": "MedicationRequest/request0"
                    }
                ]
            },
            "request": {
                "method": "PUT",
                "url": "MedicationDispense/dispense0"
            }
        },
        {
            "resource": {
                "resourceType": "MedicationDispense",
                "id": "dispense1",
                "status": "completed",
                "medicationReference": {
                    "reference": "Medication/medication1"
                },
                "subject": {
                    "reference": "Patient/patient0"
                },
                "performer": [
                    {
                        "actor": {
                            "reference": "Practitioner/practitioner0"
                        }
                    }
                ],
                "authorizingPrescription": [
                    {
                        "reference": "MedicationRequest/request1"
                    }
                ]
            },
            "request": {
                "method": "PUT",
                "url": "MedicationDispense/dispense1"
            }
        },
        {
            "resource": {
                "resourceType": "MedicationDispense",
                "id": "dispense2",
                "status": "completed",
                "medicationReference": {
                    "reference": "Medication/medication2"
                },
                "subject": {
                    "reference": "Patient/patient0"
                },
                "performer": [
                    {
                        "actor": {
                            "reference": "Practitioner/practitioner0"
                        }
                    }
                ],
                "authorizingPrescription": [
                    {
                        "reference": "MedicationRequest/request2"
                    }
                ]
            },
            "request": {
                "method": "PUT",
                "url": "MedicationDispense/dispense2"
            }
        },
        {
            "resource": {
                "resourceType": "MedicationDispense",
                "id": "dispense3",
                "status": "completed",
                "medicationReference": {
                    "reference": "Medication/medication1"
                },
                "subject": {
                    "reference": "Patient/patient1"
                },
                "performer": [
                    {
                        "actor": {
                            "reference": "Practitioner/practitioner0"
                        }
                    }
                ],
                "authorizingPrescription": [
                    {
                        "reference": "MedicationRequest/request3"
                    }
                ]
            },
            "request": {
                "method": "PUT",
                "url": "MedicationDispense/dispense3"
            }
        },
        {
            "resource": {
                "resourceType": "MedicationDispense",
                "id": "dispense4",
                "status": "completed",
                "medicationReference": {
                    "reference": "Medication/medication2"
                },
                "subject": {
                    "reference": "Patient/patient2"
                },
                "performer": [
                    {
                        "actor": {
                            "reference": "Practitioner/practitioner0"
                        }
                    }
                ],
                "authorizingPrescription": [
                    {
                        "reference": "MedicationRequest/request4"
                    }
                ]
            },
            "request": {
                "method": "PUT",
                "url": "MedicationDispense/dispense4"
            }
        },
        {
            "resource": {
                "resourceType": "MedicationDispense",
                "id": "dispense5",
                "status": "completed",
                "medicationReference": {
                    "reference": "Medication/medication3"
                },
                "subject": {
                    "reference": "Patient/patient2"
                },
                "performer": [
                    {
                        "actor": {
                            "reference": "Practitioner/practitioner0"
                        }
                    }
                ],
                "authorizingPrescription": [
                    {
                        "reference": "MedicationRequest/request5"
                    }
                ]
            },
            "request": {
                "method": "PUT",
                "url": "MedicationDispense/dispense5"
            }
        },
        {
            "resource": {
                "resourceType": "MedicationDispense",
                "id": "dispense6",
                "status": "completed",
                "medicationReference": {
                    "reference": "Medication/medication2"
                },
                "subject": {
                    "reference": "Patient/patient4"
                },
                "performer": [
                    {
                        "actor": {
                            "reference": "Practitioner/practitioner1"
                        }
                    }
                ],
                "authorizingPrescription": [
                    {
                        "reference": "MedicationRequest/request6"
                    }
                ]
            },
            "request": {
                "method": "PUT",
                "url": "MedicationDispense/dispense6"
            }
        },
        {
            "resource": {
                "resourceType": "MedicationDispense",
                "id": "dispense7",
                "status": "completed",
                "medicationReference": {
                    "reference": "Medication/medication3"
                },
                "subject": {
                    "reference": "Patient/patient5"
                },
                "performer": [
                    {
                        "actor": {
                            "reference": "Practitioner/practitioner2"
                        }
                    }
                ],
                "authorizingPrescription": [
                    {
                        "reference": "MedicationRequest/request7"
                    }
                ]
            },
            "request": {
                "method": "PUT",
                "url": "MedicationDispense/dispense7"
            }
        },
        {
            "resource": {
                "resourceType": "MedicationDispense",
                "id": "dispense8",
                "status": "completed",
                "medicationReference": {
                    "reference": "Medication/medication1"
                },
                "subject": {
                    "reference": "Patient/patient6"
                },
                "performer": [
                    {
                        "actor": {
                            "reference": "Practitioner/practitioner3"
                        }
                    }
                ],
                "authorizingPrescription": [
                    {
                        "reference": "MedicationRequest/request8"
                    }
                ]
            },
            "request": {
                "method": "PUT",
                "url": "MedicationDispense/dispense8"
            }
        },
        {
            "resource": {
                "resourceType": "MedicationDispense",
                "id": "dispense9",
                "status": "completed",
                "medicationReference": {
                    "reference": "Medication/medication3"
                },
                "subject": {
                    "reference": "Patient/patient6"
                },
                "performer": [
                    {
                        "actor": {
                            "reference": "Practitioner/practitioner3"
                        }
                    }
                ],
                "authorizingPrescription": [
                    {
                        "reference": "MedicationRequest/request9"
                    }
                ]
            },
            "request": {
                "method": "PUT",
                "url": "MedicationDispense/dispense9"
            }
        }
    ]
}
