{
    "resourceType": "Bundle",
    "id": "1eb6b09c8316564abe35fad9b948e0d3",
    "type": "transaction",
    "entry": [	    
		{
            "resource": {
				"resourceType": "Practitioner",
				"id": "smart-practitioner-A",
				"meta": {
					"versionId": "1",
					"lastUpdated": "2022-09-29T19:10:27.87+00:00",
					"tag": [
						{
							"system": "testTag",
							"code": "8d245743-e7ff-425d-b065-33e8886c60e8"
						}
					]
				},
				"name": [
					{
						"family": "practitionerA"
					}
				]
			},
            "request": {
                "method": "PUT",
                "url": "Practitioner/smart-practitioner-A"
            }
        },
		{
            "resource": {
				"resourceType": "Practitioner",
				"id": "smart-practitioner-B",
				"meta": {
					"versionId": "1",
					"lastUpdated": "2022-09-29T19:10:27.87+00:00",
					"tag": [
						{
							"system": "testTag",
							"code": "8d245743-e7ff-425d-b065-33e8886c60e8"
						}
					]
				},
				"name": [
					{
						"family": "practitionerB"
					}
				]
			},
            "request": {
                "method": "PUT",
                "url": "Practitioner/smart-practitioner-B"
            }
        },
		{
            "resource": {
				"resourceType": "Practitioner",
				"id": "smart-practitioner-C",
				"meta": {
					"versionId": "1",
					"lastUpdated": "2022-09-29T19:10:27.87+00:00",
					"tag": [
						{
							"system": "testTag",
							"code": "8d245743-e7ff-425d-b065-33e8886c60e8"
						}
					]
				},
				"name": [
					{
						"family": "SMARTPractionerC"
					}
				]
			},
            "request": {
                "method": "PUT",
                "url": "Practitioner/smart-practitioner-C"
            }
        },
		{
            "resource": {
				"resourceType": "CareTeam",
				"id": "smart-careteam-1",
				"meta": {
					"versionId": "1",
					"lastUpdated": "2022-09-29T19:10:28.036+00:00",
					"tag": [
						{
							"system": "testTag",
							"code": "8d245743-e7ff-425d-b065-33e8886c60e8"
						}
					]
				},
				"participant": [
					{
						"member": {
							"reference": "Patient/smart-patient-A"
						}
					},
					{
						"member": {
							"reference": "Patient/smart-patient-B"
						}
					},
					{
						"member": {
							"reference": "Organization/smart-Organization-A1"
						}
					},
					{
						"member": {
							"reference": "Practitioner/smart-practitioner-A"
						}
					}
				]
			},
            "request": {
                "method": "PUT",
                "url": "CareTeam/smart-careteam-1"
            }
        },        
		{
            "resource": {
				"resourceType": "Group",
				"id": "smart-group-1",
				"meta": {
					"versionId": "1",
					"lastUpdated": "2022-09-29T19:10:28.081+00:00",
					"tag": [
						{
							"system": "testTag",
							"code": "8d245743-e7ff-425d-b065-33e8886c60e8"
						}
					]
				},
				"type": "person",
				"actual": true,
				"member": [
					{
						"entity": {
							"reference": "Patient/smart-patient-B"
						}
					},
					{
						"entity": {
							"reference": "Patient/smart-patient-A"
						}
					}
				]
            },
            "request": {
                "method": "PUT",
                "url": "Group/smart-group-1"
            }
        },
		{
            "resource": {
			  "resourceType": "Account",
			  "id": "smart-account-PA1",
			  "text": {
				"status": "generated",
				"div": "<div xmlns=\"http://www.w3.org/1999/xhtml\">Inpatient Admission for Peter James Chalmers Account</div>"
			  },
			  "identifier": [
				{
				  "system": "urn:oid:0.1.2.3.4.5.6.7",
				  "value": "654321"
				}
			  ],
			  "status": "active",
			  "type": {
				"coding": [
				  {
					"system": "http://terminology.hl7.org/CodeSystem/v3-ActCode",
					"code": "PBILLACCT",
					"display": "patient billing account"
				  }
				],
				"text": "patient"
			  },
			  "name": "Inpatient: Peter James Chalmers",
			  "subject": [
				{
				  "reference": "Practioner/smart-practioner-A",
				  "display": "SMART Practioner"
				}
			  ],
			  "servicePeriod": {
				"start": "2016-01-01",
				"end": "2016-06-30"
			  }
			},
            "request": {
                "method": "PUT",
                "url": "Account/smart-account-PA1"
            }
        },
		{
            "resource": {
			  "resourceType": "Appointment",
			  "id": "smart-appointment-PB1",
			  "text": {
				"status": "generated",
				"div": "<div xmlns=\"http://www.w3.org/1999/xhtml\">Brian MRI results discussion</div>"
			  },
			  "status": "booked",
			  "serviceCategory": [
				{
				  "coding": [
					{
					  "system": "http://example.org/service-category",
					  "code": "gp",
					  "display": "General Practice"
					}
				  ]
				}
			  ],
			  "serviceType": [
				{
				  "coding": [
					{
					  "code": "52",
					  "display": "General Discussion"
					}
				  ]
				}
			  ],
			  "specialty": [
				{
				  "coding": [
					{
					  "system": "http://snomed.info/sct",
					  "code": "394814009",
					  "display": "General practice"
					}
				  ]
				}
			  ],
			  "appointmentType": {
				"coding": [
				  {
					"system": "http://terminology.hl7.org/CodeSystem/v2-0276",
					"code": "FOLLOWUP",
					"display": "A follow up visit from a previous appointment"
				  }
				]
			  },
			  "reasonReference": [
				{
				  "reference": "Condition/example",
				  "display": "Severe burn of left ear"
				}
			  ],
			  "priority": 5,
			  "description": "Discussion on the results of your recent MRI",
			  "start": "2013-12-10T09:00:00Z",
			  "end": "2013-12-10T11:00:00Z",
			  "created": "2013-10-10",
			  "comment": "Further expand on the results of the MRI and determine the next actions that may be appropriate.",
			  "participant": [
				{
				  "type": [
					{
					  "coding": [
						{
						  "system": "http://terminology.hl7.org/CodeSystem/v3-ParticipationType",
						  "code": "ATND"
						}
					  ]
					}
				  ],
				  "actor": {
					"reference": "Practitioner/smart-practitioner-B",
					"display": "Dr Adam Careful"
				  },
				  "required": "required",
				  "status": "accepted"
				}
			  ]
			},
            "request": {
                "method": "PUT",
                "url": "Appointment/smart-appointment-PB1"
            }
        },
		{
            "resource": {
			  "resourceType": "Composition",
			  "id": "smart-composition-PB1",
			  "text": {
				"status": "generated",
				"div": "<div xmlns=\"http://www.w3.org/1999/xhtml\"><p><b>Generated Narrative</b></p><div style=\"display: inline-block; background-color: #d9e0e7; padding: 6px; margin: 4px; border: 1px solid #8da1b4; border-radius: 5px; line-height: 60%\"><p style=\"margin-bottom: 0px\">Resource &quot;example-mixed&quot; </p></div><p><b>status</b>: final</p><p><b>type</b>: Neonatal perinatal medicine Discharge summary <span style=\"background: LightGoldenRodYellow; margin: 4px; border: 1px solid khaki\"> (<a href=\"https://loinc.org/\">LOINC</a>#78418-1)</span></p><p><b>category</b>: Report <span style=\"background: LightGoldenRodYellow; margin: 4px; border: 1px solid khaki\"> (<a href=\"https://loinc.org/\">LOINC</a>#LP173421-1)</span></p><p><b>date</b>: 2018-10-30T16:56:04+11:00</p><p><b>author</b>: <a href=\"practitioner-xcda-author.html\">Practitioner/xcda-author: Harold Hippocrates, MD</a> &quot;Harold HIPPOCRATES&quot;</p><p><b>title</b>: Discharge Summary (Neonatal Service)</p><p><b>confidentiality</b>: N</p><h3>Attesters</h3><table class=\"grid\"><tr><td>-</td><td><b>Mode</b></td><td><b>Time</b></td><td><b>Party</b></td></tr><tr><td>*</td><td>legal</td><td>2012-01-04T09:10:14Z</td><td><a href=\"practitioner-xcda-author.html\">Practitioner/xcda-author: Harold Hippocrates, MD</a> &quot;Harold HIPPOCRATES&quot;</td></tr></table><p><b>custodian</b>: <a href=\"organization-2.16.840.1.113883.19.5.html\">Organization/2.16.840.1.113883.19.5: Good Health Clinic</a> &quot;Good Health Clinic&quot;</p></div>"
			  },
			  "status": "final",
			  "type": {
				"coding": [
				  {
					"system": "http://loinc.org",
					"code": "78418-1",
					"display": "Neonatal perinatal medicine Discharge summary"
				  }
				]
			  },
			  "category": [
				{
				  "coding": [
					{
					  "system": "http://loinc.org",
					  "code": "LP173421-1",
					  "display": "Report"
					}
				  ]
				}
			  ],
			  "subject": {
				"reference": "Patient/smart-patient-C",
				"display": "Tahlia Smith"
			  },
			  "date": "2018-10-30T16:56:04+11:00",
			  "author": [
				{
				  "reference": "Practitioner/smart-practitioner-B",
				  "display": "Harold Hippocrates, MD"
				}
			  ],
			  "title": "Discharge Summary (Neonatal Service)",
			  "confidentiality": "N",
			  "attester": [
				{
				  "mode": "legal",
				  "time": "2012-01-04T09:10:14Z",
				  "party": {
					"reference": "Practitioner/smart-practitioner-B",
					"display": "Harold Hippocrates, MD"
				  }
				}
			  ],
			  "custodian": {
				"reference": "Organization/2.16.840.1.113883.19.5",
				"display": "Good Health Clinic"
			  },
			  "section": [
				{
				  "title": "Child's Details",
				  "code": {
					"coding": [
					  {
						"system": "http://acme.org/codes/SectionType",
						"code": "newborn",
						"display": "New Born Details"
					  }
					]
				  },
				  "text": {
					"status": "generated",
					"div": "<div xmlns=\"http://www.w3.org/1999/xhtml\">\n        (snip)\n\t\t\t</div>"
				  }
				},
				{
				  "title": "Mpther's Details",
				  "code": {
					"coding": [
					  {
						"system": "http://acme.org/codes/SectionType",
						"code": "mother",
						"display": "Mother's Details"
					  }
					]
				  },
				  "text": {
					"status": "generated",
					"div": "<div xmlns=\"http://www.w3.org/1999/xhtml\">\n\t\t\t\t(snip)\n\t\t\t</div>"
				  }
				}
			  ]
			},
            "request": {
                "method": "PUT",
                "url": "Composition/smart-composition-PB1"
            }
        },
		{
            "resource": {
			  "resourceType": "VisionPrescription",
			  "id": "smart-visionprescription-PB1",
			  "text": {
				"status": "generated",
				"div": "<div xmlns=\"http://www.w3.org/1999/xhtml\">Sample Contract Lens prescription</div>"
			  },
			  "identifier": [
				{
				  "system": "http://www.happysight.com/prescription",
				  "value": "15014"
				}
			  ],
			  "status": "active",
			  "created": "2014-06-15",
			  "patient": {
				"reference": "Patient/smart-patient-C"
			  },
			  "dateWritten": "2014-06-15",
			  "prescriber": {
				"reference": "Practitioner/smart-practitioner-B"
			  },
			  "lensSpecification": [
				{
				  "product": {
					"coding": [
					  {
						"system": "http://terminology.hl7.org/CodeSystem/ex-visionprescriptionproduct",
						"code": "contact"
					  }
					]
				  },
				  "eye": "right",
				  "cylinder": -2.25,
				  "axis": 160,
				  "add": 1.75,
				  "power": -2.75,
				  "backCurve": 8.7,
				  "diameter": 14.0,
				  "duration": {
					"value": 1,
					"unit": "mo",
					"system": "http://unitsofmeasure.org",
					"code": "mo"
				  },
				  "color": "green",
				  "brand": "OphthaGuard",
				  "note": [
					{
					  "text": "Shade treatment for extreme light sensitivity"
					}
				  ]
				},
				{
				  "product": {
					"coding": [
					  {
						"system": "http://terminology.hl7.org/CodeSystem/ex-visionprescriptionproduct",
						"code": "contact"
					  }
					]
				  },
				  "eye": "left",
				  "cylinder": -3.50,
				  "axis": 160,
				  "add": 1.75,
				  "power": -2.75,
				  "backCurve": 8.7,
				  "diameter": 14.0,
				  "duration": {
					"value": 1,
					"unit": "month",
					"system": "http://unitsofmeasure.org",
					"code": "mo"
				  },
				  "color": "green",
				  "brand": "OphthaGuard",
				  "note": [
					{
					  "text": "Shade treatment for extreme light sensitivity"
					}
				  ]
				}
			  ]
			},
            "request": {
                "method": "PUT",
                "url": "VisionPrescription/smart-visionprescription-PB1"
            }
        },
		{
            "resource": {
			  "resourceType": "Condition",
			  "id": "smart-condition-PB1",
			  "text": {
				"status": "generated",
				"div": "<div xmlns=\"http://www.w3.org/1999/xhtml\"><p><b>Generated Narrative</b></p><div style=\"display: inline-block; background-color: #d9e0e7; padding: 6px; margin: 4px; border: 1px solid #8da1b4; border-radius: 5px; line-height: 60%\"><p style=\"margin-bottom: 0px\">Resource &quot;f203&quot; </p></div><p><b>clinicalStatus</b>: Active <span style=\"background: LightGoldenRodYellow; margin: 4px; border: 1px solid khaki\"> (<a href=\"codesystem-condition-clinical.html\">Condition Clinical Status Codes</a>#active)</span></p><p><b>verificationStatus</b>: Confirmed <span style=\"background: LightGoldenRodYellow; margin: 4px; border: 1px solid khaki\"> (<a href=\"codesystem-condition-ver-status.html\">ConditionVerificationStatus</a>#confirmed)</span></p><p><b>category</b>: Problem <span style=\"background: LightGoldenRodYellow; margin: 4px; border: 1px solid khaki\"> (<a href=\"https://browser.ihtsdotools.org/\">SNOMED CT</a>#55607006; <a href=\"codesystem-condition-category.html\">Condition Category Codes</a>#problem-list-item)</span></p><p><b>severity</b>: Moderate to severe <span style=\"background: LightGoldenRodYellow; margin: 4px; border: 1px solid khaki\"> (<a href=\"https://browser.ihtsdotools.org/\">SNOMED CT</a>#371924009)</span></p><p><b>code</b>: Bacterial sepsis <span style=\"background: LightGoldenRodYellow; margin: 4px; border: 1px solid khaki\"> (<a href=\"https://browser.ihtsdotools.org/\">SNOMED CT</a>#10001005)</span></p><p><b>bodySite</b>: Pulmonary vascular structure <span style=\"background: LightGoldenRodYellow; margin: 4px; border: 1px solid khaki\"> (<a href=\"https://browser.ihtsdotools.org/\">SNOMED CT</a>#281158006)</span></p><p><b>subject</b>: <a href=\"patient-f201.html\">Patient/f201: Roel</a> &quot;Roel&quot;</p><p><b>encounter</b>: <a href=\"encounter-f203.html\">Encounter/f203: Roel's encounter on March elevanth</a></p><p><b>onset</b>: 2013-03-08</p><p><b>recordedDate</b>: 2013-03-11</p><p><b>asserter</b>: <a href=\"practitioner-f201.html\">Practitioner/f201</a> &quot;Dokter Bronsig&quot;</p><h3>Evidences</h3><table class=\"grid\"><tr><td>-</td><td><b>Detail</b></td></tr><tr><td>*</td><td><a href=\"diagnosticreport-f202.html\">DiagnosticReport/f202: Diagnostic report for Roel's sepsis</a></td></tr></table></div>"
			  },
			  "clinicalStatus": {
				"coding": [
				  {
					"system": "http://terminology.hl7.org/CodeSystem/condition-clinical",
					"code": "active"
				  }
				]
			  },
			  "verificationStatus": {
				"coding": [
				  {
					"system": "http://terminology.hl7.org/CodeSystem/condition-ver-status",
					"code": "confirmed"
				  }
				]
			  },
			  "category": [
				{
				  "coding": [
					{
					  "system": "http://snomed.info/sct",
					  "code": "55607006",
					  "display": "Problem"
					},
					{
					  "system": "http://terminology.hl7.org/CodeSystem/condition-category",
					  "code": "problem-list-item"
					}
				  ]
				}
			  ],
			  "severity": {
				"coding": [
				  {
					"system": "http://snomed.info/sct",
					"code": "371924009",
					"display": "Moderate to severe"
				  }
				]
			  },
			  "code": {
				"coding": [
				  {
					"system": "http://snomed.info/sct",
					"code": "10001005",
					"display": "Bacterial sepsis"
				  }
				]
			  },
			  "bodySite": [
				{
				  "coding": [
					{
					  "system": "http://snomed.info/sct",
					  "code": "281158006",
					  "display": "Pulmonary vascular structure"
					}
				  ]
				}
			  ],
			  "subject": {
				"reference": "Patient/smart-patient-C",
				"display": "Roel"
			  },
			  "onsetDateTime": "2013-03-08",
			  "recordedDate": "2013-03-11",
			  "asserter": {
				"reference": "Practitioner/smart-practitioner-B"
			  },
			  "evidence": [
				{
				  "detail": [
					{
					  "reference": "DiagnosticReport/f202",
					  "display": "Diagnostic report for Roel's sepsis"
					}
				  ]
				}
			  ]
			},
            "request": {
                "method": "PUT",
                "url": "Condition/smart-condition-PB1"
            }
        },
		{
            "resource": {
			  "resourceType": "Schedule",
			  "id": "smart-schedule-PA1",
			  "text": {
				"status": "generated",
				"div": "<div xmlns=\"http://www.w3.org/1999/xhtml\">\n      Dr. Beverly Crusher - USS Enterprise-D Sickbay Schedule\n\t\t</div>"
			  },
			  "identifier": [
				{
				  "use": "usual",
				  "system": "http://example.org/scheduleid",
				  "value": "46"
				}
			  ],
			  "active": true,
			  "serviceCategory": [
				{
				  "coding": [
					{
					  "code": "17",
					  "display": "General Practice"
					}
				  ]
				}
			  ],
			  "serviceType": [
				{
				  "coding": [
					{
					  "code": "75",
					  "display": "Genetic Counselling"
					}
				  ]
				}
			  ],
			  "specialty": [
				{
				  "coding": [
					{
					  "code": "394580004",
					  "display": "Clinical genetics"
					}
				  ]
				}
			  ],
			  "actor": [
				{
				  "reference": "Practitioner/smart-practitioner-A",
				  "display": "Dr. Beverly Crusher"
				}
			  ],
			  "planningHorizon": {
				"start": "2017-12-25T09:15:00Z",
				"end": "2017-12-25T09:30:00Z"
			  },
			  "comment": "The slots attached to this schedule are for genetic counselling in the USS Enterprise-D Sickbay."
			},
            "request": {
                "method": "PUT",
                "url": "Schedule/smart-schedule-PA1"
            }
        },
		{
            "resource": {
			  "resourceType": "SupplyDelivery",
			  "id": "smart-supplydelivery-PB1",
			  "text": {
				"status": "generated",
				"div": "<div xmlns=\"http://www.w3.org/1999/xhtml\">[Put rendering here]</div>"
			  },
			  "identifier": [
				{
				  "value": "98398459409",
				  "assigner": {
					"display": "SupplierDeliveryNr"
				  }
				}
			  ],
			  "status": "in-progress",
			  "patient": {
				"display": "Mr. Belpit"
			  },
			  "supplier": {
				"display": "ACME distribution"
			  },
			  "destination": {
				"display": "Home care dept"
			  },
			  "receiver": [
				{
				 "reference": "Practitioner/smart-practitioner-B", 
				  "display": "Nurse Smith"
				}
			  ]
			},
            "request": {
                "method": "PUT",
                "url": "SupplyDelivery/smart-supplydelivery-PB1"
            }
        },
		{
            "resource": {
			  "resourceType": "Procedure",
			  "id": "smart-procedure-PA1",
			  "text": {
				"status": "generated",
				"div": "<div xmlns=\"http://www.w3.org/1999/xhtml\"><p><b>Generated Narrative</b></p><div style=\"display: inline-block; background-color: #d9e0e7; padding: 6px; margin: 4px; border: 1px solid #8da1b4; border-radius: 5px; line-height: 60%\"><p style=\"margin-bottom: 0px\">Resource &quot;smart-procedure-PA1&quot; </p></div><p><b>status</b>: completed</p><p><b>code</b>: Tracheotomy <span style=\"background: LightGoldenRodYellow; margin: 4px; border: 1px solid khaki\"> (<a href=\"https://browser.ihtsdotools.org/\">SNOMED CT</a>#48387007)</span></p><p><b>subject</b>: <a href=\"patient-f001.html\">Patient/f001: P. van de Heuvel</a> &quot;Pieter VAN DE HEUVEL&quot;</p><p><b>encounter</b>: <a href=\"encounter-f003.html\">Encounter/f003</a></p><p><b>performed</b>: 2013-03-22T09:30:10+01:00 --&gt; 2013-03-22T10:30:10+01:00</p><h3>Performers</h3><table class=\"grid\"><tr><td>-</td><td><b>Function</b></td><td><b>Actor</b></td></tr><tr><td>*</td><td>Care role <span style=\"background: LightGoldenRodYellow; margin: 4px; border: 1px solid khaki\"> (unknown#01.000 &quot;Arts&quot;)</span></td><td><a href=\"practitioner-f005.html\">Practitioner/f005: A. Langeveld</a> &quot;Langeveld ANNE&quot;</td></tr></table><p><b>reasonCode</b>: ensure breathing during surgery <span style=\"background: LightGoldenRodYellow; margin: 4px; border: 1px solid khaki\"> ()</span></p><p><b>bodySite</b>: Retropharyngeal area <span style=\"background: LightGoldenRodYellow; margin: 4px; border: 1px solid khaki\"> (<a href=\"https://browser.ihtsdotools.org/\">SNOMED CT</a>#83030008)</span></p><p><b>outcome</b>: removal of the retropharyngeal abscess <span style=\"background: LightGoldenRodYellow; margin: 4px; border: 1px solid khaki\"> ()</span></p><p><b>report</b>: <a href=\"diagnosticreport-f001.html\">DiagnosticReport/f001: ???????????</a></p><p><b>followUp</b>: described in care plan <span style=\"background: LightGoldenRodYellow; margin: 4px; border: 1px solid khaki\"> ()</span></p></div>"
			  },
			  "status": "completed",
			  "code": {
				"coding": [
				  {
					"system": "http://snomed.info/sct",
					"code": "48387007",
					"display": "Tracheotomy"
				  }
				]
			  },
			  "subject": {
				"reference": "Patient/smart-patient-A",
				"display": "P. van de Heuvel"
			  },
			  "performedPeriod": {
				"start": "2013-03-22T09:30:10+01:00",
				"end": "2013-03-22T10:30:10+01:00"
			  },
			  "performer": [
				{
				  "function": {
					"coding": [
					  {
						"system": "urn:oid:2.16.840.1.113883.2.4.15.111",
						"code": "01.000",
						"display": "Arts"
					  }
					],
					"text": "Care role"
				  },
				  "actor": {
					"reference": "Practitioner/smart-practitioner-A",
					"display": "A. Langeveld"
				  }
				}
			  ],
			  "reasonCode": [
				{
				  "text": "ensure breathing during surgery"
				}
			  ],
			  "bodySite": [
				{
				  "coding": [
					{
					  "system": "http://snomed.info/sct",
					  "code": "83030008",
					  "display": "Retropharyngeal area"
					}
				  ]
				}
			  ],
			  "outcome": {
				"text": "removal of the retropharyngeal abscess"
			  },
			  "followUp": [
				{
				  "text": "described in care plan"
				}
			  ]
			},
            "request": {
                "method": "PUT",
                "url": "Procedure/smart-procedure-PA1"
            }
        },
		{
            "resource": {
			  "resourceType": "PaymentNotice",
			  "id": "smart-paymentnotice-PA1",
			  "text": {
				"status": "generated",
				"div": "<div xmlns=\"http://www.w3.org/1999/xhtml\">A human-readable rendering of the PaymentNotice</div>"
			  },
			  "identifier": [
				{
				  "system": "http://benefitsinc.com/paymentnotice",
				  "value": "776543"
				}
			  ],
			  "status": "active",
			  "request": {
				"reference": "http://benefitsinc.com/fhir/claim/12345"
			  },
			  "response": {
				"reference": "http://benefitsinc.com/fhir/claimresponse/CR12345"
			  },
			  "created": "2014-08-16",
			  "provider": {
				"reference": "Practitioner/smart-practitioner-A"
			  },
			  "payment": {
				"reference": "PaymentReconciliation/ER2500"
			  },
			  "paymentDate": "2014-08-15",
			  "payee": {
				"reference": "Practitioner/smart-practitioner-A"
			  },
			  "recipient": {
				"identifier": {
				  "system": "http://regulators.gov",
				  "value": "AB123"
				}
			  },
			  "amount": {
				"value": 12500.00,
				"currency": "USD"
			  },
			  "paymentStatus": {
				"coding": [
				  {
					"system": "http://terminology.hl7.org/CodeSystem/paymentstatus",
					"code": "paid"
				  }
				]
			  }
			},
            "request": {
                "method": "PUT",
                "url": "PaymentNotice/smart-paymentnotice-PA1"
            }
        },
		{
            "resource": {
			  "resourceType": "RiskAssessment",
			  "id": "smart-riskassessment-PB1",
			  "text": {
				"status": "generated",
				"div": "<div xmlns=\"http://www.w3.org/1999/xhtml\">Risk assessment for reference only</div>"
			  },
			  "identifier": [
				{
				  "use": "official",
				  "system": "http://example.org",
				  "value": "risk-assessment-breastcancer1"
				}
			  ],
			  "status": "final",
			  "code": {
				"coding": [
				  {
					"system": "http://browser.ihtsdotools.org/",
					"code": "709510001",
					"display": "Assessment of risk for disease (procedure)"
				  }
				]
			  },
			  "subject": {
				"reference": "Patient/smart-patient-C"
			  },
			  "encounter": {
				"reference": "Encounter/example",
				"display": "Encounter with patient @example"
			  },
			  "occurrenceDateTime": "2017-10-10",
			  "performer": {
				"reference": "Practitioner/smart-practitioner-B"
			  },
			  "prediction": [
				{
				  "outcome": {
					"text": "Breast Cancer"
				  },
				  "probabilityDecimal": 0.000368,
				  "whenRange": {
					"low": {
					  "value": 54,
					  "unit": "years",
					  "system": "http://unitsofmeasure.org",
					  "code": "a"
					},
					"high": {
					  "value": 57,
					  "unit": "years",
					  "system": "http://unitsofmeasure.org",
					  "code": "a"
					}
				  }
				}
			  ],
			  "note": [
				{
				  "text": "This risk assessment is for reference only"
				}
			  ]
			},
            "request": {
                "method": "PUT",
                "url": "RiskAssessment/smart-riskassessment-PB1"
            }
        },
		{
            "resource": {
			  "resourceType": "Provenance",
			  "id": "smart-provenance-PB2",
			  "text": {
				"status": "generated",
				"div": "<div xmlns=\"http://www.w3.org/1999/xhtml\">\n\t\t\t<p>\n\t\t\t\t<b>Generated Narrative with Details</b>\n\t\t\t</p><p>\n\t\t\t\t<b>id</b>: example-biocompute-object</p><p>\n\t\t\t\t<b>target</b>: <a href=\"http://build.fhir.org/sequence-example.html\">MolecularSequence/example</a>\n\t\t\t</p><p>\n\t\t\t\t<b>period</b>: 2017-6-6 --&gt; (ongoing)</p><p>\n\t\t\t\t<b>recorded</b>: 2016-6-9 8:12:14</p><p>\n\t\t\t\t<b>reason</b>: antiviral resistance detection (Details: [not stated] code null = 'null', stated as\n         'antiviral resistance detection')</p>\n\t\t\t<h3>Agents</h3>\n\t\t\t<table>\n\t\t\t\t<tr>\n\t\t\t\t\t<td>-</td>\n\t\t\t\t\t<td>\n\t\t\t\t\t\t<b>Role</b>\n\t\t\t\t\t</td>\n\t\t\t\t\t<td>\n\t\t\t\t\t\t<b>Who</b>\n\t\t\t\t\t</td>\n\t\t\t\t</tr>\n\t\t\t\t<tr>\n\t\t\t\t\t<td>*</td>\n\t\t\t\t\t<td>Author (Details: http://hl7.org/fhir/provenance-participant-role code author = 'Author',\n             stated as 'null')</td>\n\t\t\t\t\t<td>\n\t\t\t\t\t\t<a href=\"http://build.fhir.org/practitioner-example.html\">Practitioner/example</a>\n\t\t\t\t\t</td>\n\t\t\t\t</tr>\n\t\t\t</table>\n\t\t\t<h3>Entities</h3>\n\t\t\t<table>\n\t\t\t\t<tr>\n\t\t\t\t\t<td>-</td>\n\t\t\t\t\t<td>\n\t\t\t\t\t\t<b>Role</b>\n\t\t\t\t\t</td>\n\t\t\t\t\t<td>\n\t\t\t\t\t\t<b>Reference</b>\n\t\t\t\t\t</td>\n\t\t\t\t</tr>\n\t\t\t\t<tr>\n\t\t\t\t\t<td>*</td>\n\t\t\t\t\t<td>source</td>\n\t\t\t\t\t<td>\n\t\t\t\t\t\t<a href=\"https://hive.biochemistry.gwu.edu/cgi-bin/prd/htscsrs/servlet.cgi?pageid=bcoexample_1\">Biocompute example</a>\n\t\t\t\t\t</td>\n\t\t\t\t</tr>\n\t\t\t</table>\n\t\t</div>"
			  },
			  "target": [
				{
				  "reference": "MolecularSequence/smart-MolecularSequence-3"
				}
			  ],
			  "occurredPeriod": {
				"start": "2017-06-06"
			  },
			  "recorded": "2016-06-09T08:12:14+10:00",
			  "reason": [
				{
				  "text": "antiviral resistance detection"
				}
			  ],
			  "agent": [
				{
				  "type": {
					"coding": [
					  {
						"system": "http://terminology.hl7.org/CodeSystem/v3-ParticipationType",
						"code": "AUT"
					  }
					]
				  },
				  "who": {
					"reference": "Practitioner/smart-practitioner-B"
				  }
				}
			  ],
			  "entity": [
				{
				  "role": "source",
				  "what": {
					"identifier": {
					  "type": {
						"coding": [
						  {
							"system": "https://hive.biochemistry.gwu.edu",
							"code": "biocompute",
							"display": "obj.1001"
						  }
						]
					  },
					  "value": "https://hive.biochemistry.gwu.edu/cgi-bin/prd/htscsrs/servlet.cgi?pageid=bcoexample_1"
					}
				  }
				}
			  ]
			},
            "request": {
                "method": "PUT",
                "url": "Provenance/smart-provenance-PB2"
            }
        }
	]
}	
