{
  "resourceType": "ExplanationOfBenefit",
  "id": "51d49173-2162-b82e-37c2-62f9efbca1e6",
  "contained": [
    {
      "resourceType": "ServiceRequest",
      "id": "referral",
      "status": "completed",
      "intent": "order",
      "subject": {
        "reference": "Patient/262741b0-50fe-114c-103f-be34d5cd3e37"
      },
      "requester": {
        "reference": "Practitioner/7a940c0c-3301-3bf9-915f-323084439934"
      },
      "performer": [
        {
          "reference": "Practitioner/7a940c0c-3301-3bf9-915f-323084439934"
        }
      ]
    },
    {
      "resourceType": "Coverage",
      "id": "coverage",
      "status": "active",
      "type": {
        "text": "Blue Cross Blue Shield"
      },
      "beneficiary": {
        "reference": "Patient/262741b0-50fe-114c-103f-be34d5cd3e37"
      },
      "payor": [
        {
          "display": "Blue Cross Blue Shield"
        }
      ]
    }
  ],
  "identifier": [
    {
      "system": "https://bluebutton.cms.gov/resources/variables/clm_id",
      "value": "4db0afba-e425-1a6a-096f-0f0cbaba9717"
    },
    {
      "system": "https://bluebutton.cms.gov/resources/identifier/claim-group",
      "value": "99999999999"
    }
  ],
  "status": "active",
  "type": {
    "coding": [
      {
        "system": "http://terminology.hl7.org/CodeSystem/claim-type",
        "code": "institutional"
      }
    ]
  },
  "use": "claim",
  "patient": {
    "reference": "Patient/262741b0-50fe-114c-103f-be34d5cd3e37"
  },
  "billablePeriod": {
    "start": "1922-05-27T14:54:56+00:00",
    "end": "1923-05-27T14:54:56+00:00"
  },
  "created": "1922-05-27T14:54:56+00:00",
  "insurer": {
    "display": "Blue Cross Blue Shield"
  },
  "provider": {
    "reference": "Practitioner/7a940c0c-3301-3bf9-915f-323084439934"
  },
  "referral": {
    "reference": "#referral"
  },
  "claim": {
    "reference": "Claim/4db0afba-e425-1a6a-096f-0f0cbaba9717"
  },
  "outcome": "complete",
  "careTeam": [
    {
      "sequence": 1,
      "provider": {
        "reference": "Practitioner/7a940c0c-3301-3bf9-915f-323084439934"
      },
      "role": {
        "coding": [
          {
            "system": "http://terminology.hl7.org/CodeSystem/claimcareteamrole",
            "code": "primary",
            "display": "Primary Care Practitioner"
          }
        ]
      }
    }
  ],
  "insurance": [
    {
      "focal": true,
      "coverage": {
        "reference": "#coverage",
        "display": "Blue Cross Blue Shield"
      }
    }
  ],
  "item": [
    {
      "sequence": 1,
      "category": {
        "coding": [
          {
            "system": "https://bluebutton.cms.gov/resources/variables/line_cms_type_srvc_cd",
            "code": "1",
            "display": "Medical care"
          }
        ]
      },
      "productOrService": {
        "coding": [
          {
            "system": "http://snomed.info/sct",
            "code": "185345009",
            "display": "Encounter for symptom"
          }
        ],
        "text": "Encounter for symptom"
      },
      "servicedPeriod": {
        "start": "1922-05-27T14:39:56+00:00",
        "end": "1922-05-27T14:54:56+00:00"
      },
      "locationCodeableConcept": {
        "coding": [
          {
            "system": "http://terminology.hl7.org/CodeSystem/ex-serviceplace",
            "code": "21",
            "display": "Inpatient Hospital"
          }
        ]
      },
      "encounter": [
        {
          "reference": "Encounter/bc97ae0b-d99d-3952-4560-0f246b7ee546"
        }
      ]
    }
  ],
  "total": [
    {
      "category": {
        "coding": [
          {
            "system": "http://terminology.hl7.org/CodeSystem/adjudication",
            "code": "submitted",
            "display": "Submitted Amount"
          }
        ],
        "text": "Submitted Amount"
      },
      "amount": {
        "value": 129.16,
        "currency": "USD"
      }
    }
  ],
  "payment": {
    "amount": {
      "value": 0.0,
      "currency": "USD"
    }
  }
}
