{
    "resourceType": "Bundle",
    "type": "batch",
    "entry": [
        {
            "resource": {
            "resourceType": "ValueSet",
            "id": "cpt-all",
            "url": "http://hl7.org/fhir/ValueSet/cpt-all",
            "name": "All CPT codes",
            "status": "active",
            "date": "2015-03-12",
            "publisher": "Health Level Seven International (Vocabulary)",
            "description": "A value set that includes all CPT codes",
            "useContext": [
                {
                    "code": {
                        "system": "http://example.org/fhir/CodeSystem/use-contexts",
                        "code": "species"
                    },
                    "valueCodeableConcept": {
                        "coding": [
                            {
                                "system": "http://snomed.info/sct",
                                "code": "337915000",
                                "display": "Homo sapiens (organism)"
                            }
                        ]
                    }
                }
            ],
            "jurisdiction": [
                {
                    "coding": [
                        {
                            "system": "urn:iso:std:iso:3166",
                            "code": "US"
                        }
                    ]
                }
            ],
            "compose": {
                "include": [
                    {
                        "system": "http://www.ama-assn.org/go/cpt"
                    }
                ]
            }
        },
            "request": {
                "method": "PUT",
                "url": "ValueSet/cpt-all"
            }
        },
        {
            "resource": {
            "resourceType": "ValueSet",
            "id": "detailed-race",
            "text": {
                "status": "generated",
                "div": "<div xmlns=\"http://www.w3.org/1999/xhtml\"><h2>Detailed Race</h2><div><p>The 900+ <a href=\"http://www.cdc.gov/phin/resources/vocabulary/index.html\">CDC Race codes</a> that are grouped under one of the 5 OMB race category codes.</p>\n</div><p>This value set includes codes from the following code systems:</p><ul><li>Include codes from <a href=\"CodeSystem-cdcrec.html\"><code>urn:oid:2.16.840.1.113883.6.238</code></a> where concept  is-a  <a href=\"CodeSystem-cdcrec.html#cdcrec-1000-9\">1000-9</a></li><li>Exclude these codes as defined in <a href=\"CodeSystem-cdcrec.html\"><code>urn:oid:2.16.840.1.113883.6.238</code></a><table class=\"none\"><tr><td style=\"white-space:nowrap\"><b>Code</b></td><td><b>Display</b></td></tr><tr><td><a href=\"CodeSystem-cdcrec.html#cdcrec-1002-5\">1002-5</a></td><td>American Indian or Alaska Native</td><td>American Indian or Alaska Native</td></tr><tr><td><a href=\"CodeSystem-cdcrec.html#cdcrec-2028-9\">2028-9</a></td><td>Asian</td><td>Asian</td></tr><tr><td><a href=\"CodeSystem-cdcrec.html#cdcrec-2054-5\">2054-5</a></td><td>Black or African American</td><td>Black or African American</td></tr><tr><td><a href=\"CodeSystem-cdcrec.html#cdcrec-2076-8\">2076-8</a></td><td>Native Hawaiian or Other Pacific Islander</td><td>Native Hawaiian or Other Pacific Islander</td></tr><tr><td><a href=\"CodeSystem-cdcrec.html#cdcrec-2106-3\">2106-3</a></td><td>White</td><td>White</td></tr></table></li></ul></div>"
            },
            "url": "http://hl7.org/fhir/us/core/ValueSet/detailed-race",
            "version": "3.0.0",
            "name": "DetailedRace",
            "title": "Detailed Race",
            "status": "active",
            "date": "2019-05-21T00:00:00-04:00",
            "publisher": "HL7 US Realm Steering Committee",
            "description": "The 900+ [CDC Race codes](http://www.cdc.gov/phin/resources/vocabulary/index.html) that are grouped under one of the 5 OMB race category codes.",
            "jurisdiction": [
                {
                    "coding": [
                        {
                            "system": "urn:iso:std:iso:3166",
                            "code": "US",
                            "display": "United States of America"
                        }
                    ]
                }
            ],
            "compose": {
                "include": [
                    {
                        "system": "urn:oid:2.16.840.1.113883.6.238",
                        "filter": [
                            {
                                "property": "concept",
                                "op": "is-a",
                                "value": "1000-9"
                            }
                        ]
                    }
                ],
                "exclude": [
                    {
                        "system": "urn:oid:2.16.840.1.113883.6.238",
                        "concept": [
                            {
                                "code": "1002-5"
                            },
                            {
                                "code": "2028-9"
                            },
                            {
                                "code": "2054-5"
                            },
                            {
                                "code": "2076-8"
                            },
                            {
                                "code": "2106-3"
                            }
                        ]
                    }
                ]
            }
        },
            "request": {
                "method": "PUT",
                "url": "ValueSet/detailed-race"
            }
        },
        {
            "resource": {
                "resourceType": "Medication",
                "id": "med0302",
                "text": {
                    "status": "generated",
                    "div": "<div xmlns=\"http://www.w3.org/1999/xhtml\"><p><b>Generated Narrative with Details</b></p><p><b>id</b>: med0310</p><p><b>contained</b>: </p><p><b>code</b>: Oral Form Oxycodone (product) <span>(Details : {SNOMED CT code '430127000' = 'Oral form oxycodone', given as 'Oral Form Oxycodone (product)'})</span></p><p><b>form</b>: Tablet dose form (qualifier value) <span>(Details : {SNOMED CT code '385055001' = 'Tablet', given as 'Tablet dose form (qualifier value)'})</span></p><h3>Ingredients</h3><table><tr><td>-</td><td><b>Item[x]</b></td><td><b>Strength</b></td></tr><tr><td>*</td><td>id: sub03; Oxycodone (substance) <span>(Details : {SNOMED CT code '55452001' = 'Oxycodone', given as 'Oxycodone (substance)'})</span></td><td>5 mg<span> (Details: UCUM code mg = 'mg')</span>/1 TAB<span> (Details: http://terminology.hl7.org/CodeSystem/v3-orderableDrugForm code TAB = 'Tablet')</span></td></tr></table></div>"
                },
                "contained": [
                    {
                    "resourceType": "Substance",
                    "id": "sub03",
                    "code": {
                        "coding": [
                        {
                            "system": "http://snomed.info/sct",
                            "code": "55452001",
                            "display": "Oxycodone (substance)"
                        }
                        ]
                    }
                    }
                ],
                "code": {
                    "coding": [
                    {
                        "system": "http://snomed.info/sct",
                        "code": "430127000",
                        "display": "Oral Form Oxycodone (product)"
                    }
                    ]
                },
                "form": {
                    "coding": [
                    {
                        "system": "http://snomed.info/sct",
                        "code": "385055001",
                        "display": "Tablet dose form (qualifier value)"
                    }
                    ]
                },
                "ingredient": [
                    {
                    "itemReference": {
                        "reference": "#sub03"
                    },
                    "strength": {
                        "numerator": {
                        "value": 5,
                        "system": "http://unitsofmeasure.org",
                        "code": "mg"
                        },
                        "denominator": {
                        "value": 1,
                        "system": "http://terminology.hl7.org/CodeSystem/v3-orderableDrugForm",
                        "code": "TAB"
                        }
                    }
                    }
                ]
            },
            "request": {
                "method": "PUT",
                "url": "Medication/med0302"
            }
        },
        {
            "resource": {
                "resourceType": "Medication",
                "id": "med0303",
                "text": {
                    "status": "generated",
                    "div": "<div xmlns=\"http://www.w3.org/1999/xhtml\"><p><b>Generated Narrative with Details</b></p><p><b>id</b>: med0310</p><p><b>contained</b>: </p><p><b>code</b>: Oral Form Oxycodone (product) <span>(Details : {SNOMED CT code '430127000' = 'Oral form oxycodone', given as 'Oral Form Oxycodone (product)'})</span></p><p><b>form</b>: Tablet dose form (qualifier value) <span>(Details : {SNOMED CT code '385055001' = 'Tablet', given as 'Tablet dose form (qualifier value)'})</span></p><h3>Ingredients</h3><table><tr><td>-</td><td><b>Item[x]</b></td><td><b>Strength</b></td></tr><tr><td>*</td><td>id: sub03; Oxycodone (substance) <span>(Details : {SNOMED CT code '55452001' = 'Oxycodone', given as 'Oxycodone (substance)'})</span></td><td>5 mg<span> (Details: UCUM code mg = 'mg')</span>/1 TAB<span> (Details: http://terminology.hl7.org/CodeSystem/v3-orderableDrugForm code TAB = 'Tablet')</span></td></tr></table></div>"
                },
                "contained": [
                    {
                    "resourceType": "Substance",
                    "id": "sub03",
                    "code": {
                        "coding": [
                        {
                            "system": "http://snomed.info/sct",
                            "code": "55452001",
                            "display": "Oxycodone (substance)"
                        }
                        ]
                    }
                    }
                ],
                "code": {
                    "coding": [
                    {
                        "system": "http://snomed.info/sct",
                        "code": "430127000",
                        "display": "Oral Form Oxycodone (product)"
                    }
                    ]
                },
                "form": {
                    "coding": [
                    {
                        "system": "http://snomed.info/sct",
                        "code": "385055001",
                        "display": "Tablet dose form (qualifier value)"
                    }
                    ]
                },
                "ingredient": [
                    {
                    "itemReference": {
                        "reference": "#sub03"
                    },
                    "strength": {
                        "numerator": {
                        "value": 5,
                        "system": "http://unitsofmeasure.org",
                        "code": "mg"
                        },
                        "denominator": {
                        "value": 1,
                        "system": "http://terminology.hl7.org/CodeSystem/v3-orderableDrugForm",
                        "code": "TAB"
                        }
                    }
                    }
                ]
            },
            "request": {
                "method": "PUT",
                "url": "Medication/med0303"
            }
        },
        {
            "resource": {
            "resourceType": "MedicationRequest",
            "id": "MedicationRequest1",
            "text": {
                "status": "generated",
                "div": "<div xmlns=\"http://www.w3.org/1999/xhtml\"><p><b>Generated Narrative with Details</b></p><p><b>id</b>: medrx0318</p><p><b>contained</b>: </p><p><b>identifier</b>: 12345689 (OFFICIAL)</p><p><b>status</b>: active</p><p><b>intent</b>: order</p><p><b>medication</b>: id: med0301; Vancomycin Hydrochloride (VANCOMYCIN HYDROCHLORIDE) <span>(Details : {http://hl7.org/fhir/sid/ndc code '0069-2587-10' = 'n/a', given as 'Vancomycin Hydrochloride (VANCOMYCIN HYDROCHLORIDE)'})</span></p><p><b>subject</b>: <a>Donald Duck</a></p><p><b>encounter</b>: <a>encounter who leads to this prescription</a></p><p><b>authoredOn</b>: 15/01/2015</p><p><b>requester</b>: <a>Patrick Pump</a></p><p><b>reasonCode</b>: Traveller's Diarrhea (disorder) <span>(Details : {SNOMED CT code '11840006' = 'Traveler's diarrhea', given as 'Traveller's Diarrhea (disorder)'})</span></p><p><b>note</b>: culture expected back in 12 hours - may switch depending on results</p><p><b>dosageInstruction</b>: </p></div>"
            },
            "contained": [
                {
                "resourceType": "Medication",
                "id": "med0301",
                "code": {
                    "coding": [
                    {
                        "system": "http://hl7.org/fhir/sid/ndc",
                        "code": "0069-2587-10",
                        "display": "Vancomycin Hydrochloride (VANCOMYCIN HYDROCHLORIDE)"
                    }
                    ]
                }
                }
            ],
            "identifier": [
                {
                "use": "official",
                "system": "http://www.bmc.nl/portal/prescriptions",
                "value": "12345689"
                }
            ],
            "status": "active",
            "intent": "order",
            "medicationReference": {
                "reference": "med0302"
            },
            "subject": {
                "reference": "Patient/pat1",
                "display": "Donald Duck"
            },
            "encounter": {
                "reference": "Encounter/f001",
                "display": "encounter who leads to this prescription"
            },
            "authoredOn": "2015-01-15",
            "requester": {
                "reference": "Practitioner/f007",
                "display": "Patrick Pump"
            },
            "reasonCode": [
                {
                "coding": [
                    {
                    "system": "http://snomed.info/sct",
                    "code": "11840006",
                    "display": "Traveller's Diarrhea (disorder)"
                    }
                ]
                }
            ],
            "note": [
                {
                "text": "culture expected back in 12 hours - may switch depending on results"
                }
            ],
            "dosageInstruction": [
                {
                "sequence": 1,
                "text": "500mg IV q6h x 3 days",
                "timing": {
                    "repeat": {
                    "frequency": 1,
                    "period": 6,
                    "periodUnit": "h"
                    }
                },
                "route": {
                    "coding": [
                    {
                        "system": "http://snomed.info/sct",
                        "code": "255560000",
                        "display": "Intravenous"
                    }
                    ]
                },
                "method": {
                    "coding": [
                    {
                        "system": "http://snomed.info/sct",
                        "code": "420620005",
                        "display": "Push - dosing instruction imperative (qualifier value)"
                    }
                    ]
                },
                "doseAndRate": [
                    {
                    "type": {
                        "coding": [
                        {
                            "system": "http://terminology.hl7.org/CodeSystem/dose-rate-type",
                            "code": "ordered",
                            "display": "Ordered"
                        }
                        ]
                    },
                    "doseQuantity": {
                        "value": 500,
                        "unit": "mg",
                        "system": "http://unitsofmeasure.org",
                        "code": "mg"
                    }
                    }
                ]
                }
            ]
            },
            "request": {
                "method": "PUT",
                "url": "MedicationRequest/MedicationRequest1"
            }
        },
        {
            "resource": {
            "resourceType": "MedicationRequest",
            "id": "MedicationRequest2",
            "text": {
                "status": "generated",
                "div": "<div xmlns=\"http://www.w3.org/1999/xhtml\"><p><b>Generated Narrative with Details</b></p><p><b>id</b>: medrx0318</p><p><b>contained</b>: </p><p><b>identifier</b>: 12345689 (OFFICIAL)</p><p><b>status</b>: active</p><p><b>intent</b>: order</p><p><b>medication</b>: id: med0301; Vancomycin Hydrochloride (VANCOMYCIN HYDROCHLORIDE) <span>(Details : {http://hl7.org/fhir/sid/ndc code '0069-2587-10' = 'n/a', given as 'Vancomycin Hydrochloride (VANCOMYCIN HYDROCHLORIDE)'})</span></p><p><b>subject</b>: <a>Donald Duck</a></p><p><b>encounter</b>: <a>encounter who leads to this prescription</a></p><p><b>authoredOn</b>: 15/01/2015</p><p><b>requester</b>: <a>Patrick Pump</a></p><p><b>reasonCode</b>: Traveller's Diarrhea (disorder) <span>(Details : {SNOMED CT code '11840006' = 'Traveler's diarrhea', given as 'Traveller's Diarrhea (disorder)'})</span></p><p><b>note</b>: culture expected back in 12 hours - may switch depending on results</p><p><b>dosageInstruction</b>: </p></div>"
            },
            "contained": [
                {
                "resourceType": "Medication",
                "id": "med0301",
                "code": {
                    "coding": [
                    {
                        "system": "http://hl7.org/fhir/sid/ndc",
                        "code": "0069-2587-10",
                        "display": "Vancomycin Hydrochloride (VANCOMYCIN HYDROCHLORIDE)"
                    }
                    ]
                }
                }
            ],
            "identifier": [
                {
                "use": "official",
                "system": "http://www.bmc.nl/portal/prescriptions",
                "value": "12345689"
                }
            ],
            "status": "active",
            "intent": "order",
            "medicationReference": {
                "reference": "med0302"
            },
            "subject": {
                "reference": "Patient/pat1",
                "display": "Donald Duck"
            },
            "encounter": {
                "reference": "Encounter/f001",
                "display": "encounter who leads to this prescription"
            },
            "authoredOn": "2015-01-15",
            "requester": {
                "reference": "Practitioner/f007",
                "display": "Patrick Pump"
            },
            "reasonCode": [
                {
                "coding": [
                    {
                    "system": "http://snomed.info/sct",
                    "code": "11840006",
                    "display": "Traveller's Diarrhea (disorder)"
                    }
                ]
                }
            ],
            "note": [
                {
                "text": "culture expected back in 12 hours - may switch depending on results"
                }
            ],
            "dosageInstruction": [
                {
                "sequence": 1,
                "text": "500mg IV q6h x 3 days",
                "timing": {
                    "repeat": {
                    "frequency": 1,
                    "period": 6,
                    "periodUnit": "h"
                    }
                },
                "route": {
                    "coding": [
                    {
                        "system": "http://snomed.info/sct",
                        "code": "255560000",
                        "display": "Intravenous"
                    }
                    ]
                },
                "method": {
                    "coding": [
                    {
                        "system": "http://snomed.info/sct",
                        "code": "420620005",
                        "display": "Push - dosing instruction imperative (qualifier value)"
                    }
                    ]
                },
                "doseAndRate": [
                    {
                    "type": {
                        "coding": [
                        {
                            "system": "http://terminology.hl7.org/CodeSystem/dose-rate-type",
                            "code": "ordered",
                            "display": "Ordered"
                        }
                        ]
                    },
                    "doseQuantity": {
                        "value": 500,
                        "unit": "mg",
                        "system": "http://unitsofmeasure.org",
                        "code": "mg"
                    }
                    }
                ]
                }
            ]
            },
            "request": {
                "method": "PUT",
                "url": "MedicationRequest/MedicationRequest2"
            }
        },
        {
            "resource": {
            "resourceType": "Patient",
                "id": "PatWithObservations1",
                "meta": {
                    "versionId": "19",
                    "lastUpdated": "2025-07-06T05:38:07.155+00:00",
                    "security": [
                    {
                        "system": "http://example.org/security-system",
                        "code": "SECURITY_TAG_CODE",
                        "display": "Updated Security Tag Display"
                    }
                    ],
                    "tag": [
                    {
                        "code": "oldData"
                    }
                    ]
                },
                "language": "fr",
                "name": [
                    {
                    "family": "Chalmers",
                    "given": [
                        "Susan"
                    ]
                    }
                ],
                "gender": "female"
            },
            "request": {
                "method": "PUT",
                "url": "Patient/PatWithObservations1"
            }
        },
        {
            "resource": {
            "resourceType": "Patient",
                "id": "PatWithObservations2",
                "meta": {
                    "versionId": "19",
                    "lastUpdated": "2025-07-06T05:38:07.155+00:00",
                    "security": [
                    {
                        "system": "http://example.org/security-system",
                        "code": "SECURITY_TAG_CODE",
                        "display": "Updated Security Tag Display"
                    }
                    ],
                    "tag": [
                    {
                        "code": "oldData"
                    }
                    ]
                },
                "language": "fr",
                "name": [
                    {
                    "family": "Chalmers",
                    "given": [
                        "Susan"
                    ]
                    }
                ],
                "gender": "female"
            },
            "request": {
                "method": "PUT",
                "url": "Patient/PatWithObservations2"
            }
        },
        {
            "resource": {
            "resourceType": "Observation",
                "id": "Observation1",
                "meta": {
                "versionId": "5",
                "lastUpdated": "2025-07-09T21:52:22.514+00:00",
                "security": [
                    {
                    "system": "http://terminology.hl7.org/CodeSystem/v3-Confidentiality",
                    "code": "R",
                    "display": "restricted"
                    }
                ]
                },
                "language": "fr",
                "status": "registered",
                "code": {
                "coding": [
                    {
                    "system": "system",
                    "code": "code"
                    }
                ]
                },
                "subject": {
                "reference": "Patient/PatWithObservations1"
                }
        },
            "request": {
                "method": "PUT",
                "url": "Observation/Observation1"
            }
        },
        {
            "resource": {
            "resourceType": "Observation",
                "id": "Observation2",
                "meta": {
                "versionId": "5",
                "lastUpdated": "2025-07-09T21:52:22.514+00:00",
                "security": [
                    {
                    "system": "http://terminology.hl7.org/CodeSystem/v3-Confidentiality",
                    "code": "R",
                    "display": "restricted"
                    }
                ]
                },
                "language": "fr",
                "status": "registered",
                "code": {
                "coding": [
                    {
                    "system": "system",
                    "code": "code"
                    }
                ]
                },
                "subject": {
                "reference": "Patient/PatWithObservations1"
                }
        },
            "request": {
                "method": "PUT",
                "url": "Observation/Observation2"
            }
        },
        {
            "resource": {
            "resourceType": "Observation",
                "id": "Observation3",
                "meta": {
                "versionId": "5",
                "lastUpdated": "2025-07-09T21:52:22.514+00:00",
                "security": [
                    {
                    "system": "http://terminology.hl7.org/CodeSystem/v3-Confidentiality",
                    "code": "R",
                    "display": "restricted"
                    }
                ]
                },
                "language": "fr",
                "status": "registered",
                "code": {
                "coding": [
                    {
                    "system": "system",
                    "code": "code"
                    }
                ]
                },
                "subject": {
                "reference": "Patient/PatWithObservations1"
                }
        },
            "request": {
                "method": "PUT",
                "url": "Observation/Observation3"
            }
        },
        {
            "resource": {
            "resourceType": "Observation",
                "id": "Observation5",
                "meta": {
                "versionId": "5",
                "lastUpdated": "2025-07-09T21:52:22.514+00:00",
                "security": [
                    {
                    "system": "http://terminology.hl7.org/CodeSystem/v3-Confidentiality",
                    "code": "R",
                    "display": "restricted"
                    }
                ]
                },
                "language": "fr",
                "status": "registered",
                "code": {
                "coding": [
                    {
                    "system": "system",
                    "code": "code"
                    }
                ]
                },
                "subject": {
                "reference": "Patient/PatWithObservations2"
                }
        },
            "request": {
                "method": "PUT",
                "url": "Observation/Observation5"
            }
        },
        {
            "resource": {
            "resourceType": "Observation",
                "id": "Observation6",
                "meta": {
                "versionId": "5",
                "lastUpdated": "2025-07-09T21:52:22.514+00:00",
                "security": [
                    {
                    "system": "http://terminology.hl7.org/CodeSystem/v3-Confidentiality",
                    "code": "R",
                    "display": "restricted"
                    }
                ]
                },
                "language": "fr",
                "status": "registered",
                "code": {
                "coding": [
                    {
                    "system": "system",
                    "code": "code"
                    }
                ]
                },
                "subject": {
                "reference": "Patient/PatWithObservations2"
                }
        },
            "request": {
                "method": "PUT",
                "url": "Observation/Observation6"
            }
        },
        {
            "resource": {
            "resourceType": "Observation",
                "id": "Observation7",
                "meta": {
                "versionId": "5",
                "lastUpdated": "2025-07-09T21:52:22.514+00:00",
                "security": [
                    {
                    "system": "http://terminology.hl7.org/CodeSystem/v3-Confidentiality",
                    "code": "R",
                    "display": "restricted"
                    }
                ]
                },
                "language": "fr",
                "status": "registered",
                "code": {
                "coding": [
                    {
                    "system": "system",
                    "code": "code"
                    }
                ]
                },
                "subject": {
                "reference": "Patient/PatWithObservations2"
                }
        },
            "request": {
                "method": "PUT",
                "url": "Observation/Observation7"
            }
        },
        {
            "resource": {
                "resourceType": "Observation",
                "id": "example-observation2",
                "status": "final",
                "category": [
                    {
                    "coding": [
                        {
                        "system": "http://terminology.hl7.org/CodeSystem/observation-category",
                        "code": "laboratory",
                        "display": "Laboratory"
                        }
                    ]
                    }
                ],
                "code": {
                    "coding": [
                    {
                        "system": "http://loinc.org",
                        "code": "15074-8",
                        "display": "Creatinine [Mass/volume] in Urine"
                    }
                    ],
                    "text": "Creatinine in Urine"
                },
                "subject": {
                    "reference": "Patient/example"
                },
                "effectiveDateTime": "2025-07-09T11:43:56+00:00",
                "valueQuantity": {
                    "value": 1.2,
                    "unit": "mg/g Cr",
                    "system": "http://unitsofmeasure.org",
                    "code": "mg/g{Cr}"
                },
                "referenceRange": [
                    {
                    "low": {
                        "value": 0.5,
                        "unit": "mg/g Cr",
                        "system": "http://unitsofmeasure.org",
                        "code": "mg/g{Cr}"
                    },
                    "high": {
                        "value": 1.5,
                        "unit": "mg/g Cr",
                        "system": "http://unitsofmeasure.org",
                        "code": "mg/g{Cr}"
                    }
                    }
                ]
            },
            "request": {
                "method": "PUT",
                "url": "Observation/example-observation2"
            }
        },
        {
            "resource": {
                "resourceType": "Observation",
                "id": "example-observation1",
                "status": "final",
                "category": [
                    {
                    "coding": [
                        {
                        "system": "http://terminology.hl7.org/CodeSystem/observation-category",
                        "code": "laboratory",
                        "display": "Laboratory"
                        }
                    ]
                    }
                ],
                "code": {
                    "coding": [
                    {
                        "system": "http://loinc.org",
                        "code": "15074-8",
                        "display": "Creatinine [Mass/volume] in Urine"
                    }
                    ],
                    "text": "Creatinine in Urine"
                },
                "subject": {
                    "reference": "Patient/example"
                },
                "effectiveDateTime": "2025-07-09T11:43:56+00:00",
                "valueQuantity": {
                    "unit": "mg/g Cr"
                }
            },
            "request": {
                "method": "PUT",
                "url": "Observation/example-observation1"
            }
        },
        {
            "resource": {
                "resourceType": "Practitioner",
                "id": "example",
                "name": [
                    {
                        "given": [
                            "Laura"
                        ]
                    }
                ],
                "address": [
                    {
                        "state": "VT"
                    }
                ]
            },
            "request": {
                "method": "PUT",
                "url": "Practitioner/example"
            }
        },
        {
            "resource": {
                "resourceType": "ServiceRequest",
                "id": "example",
                "meta": {
                    "versionId": "1",
                    "lastUpdated": "2025-07-08T18:11:56-07:00"
                },
                "status": "active",
                "intent": "order",
                "category": [
                    {
                        "coding": [
                            {
                                "system": "http://snomed.info/sct",
                                "code": "108252007",
                                "display": "Laboratory procedure"
                            }
                        ]
                    }
                ],
                "priority": "routine",
                "subject": {
                    "reference": "Patient/example"
                },
                "authoredOn": "2025-07-08T18:11:56-07:00",
                "requester": {
                    "reference": "Practitioner/example"
                },
                "performer": [
                    {
                        "reference": "Practitioner/example"
                    }
                ],
                "reasonCode": [
                    {
                        "coding": [
                            {
                                "system": "http://snomed.info/sct",
                                "code": "123456",
                                "display": "Routine check-up"
                            }
                        ]
                    }
                ],
                "note": [
                    {
                        "text": "Patient requires a routine laboratory procedure."
                    }
                ]
            },
            "request": {
                "method": "POST",
                "url": "ServiceRequest"
            }
        },
        {
            "resource": {
                "resourceType": "MedicationRequest",
                "status": "active",
                "intent": "plan",
                "medicationCodeableConcept": {
                    "coding": [
                        {
                            "code": "test"
                        }
                    ]
                },
                "subject": {
                    "reference": "Patient/searchpatient1"
                }
            },
            "request": {
                "method": "POST",
                "url": "MedicationRequest"
            }
        },
        {
            "resource": {
                "resourceType": "Patient",
                "id": "searchpatient1",
                "name": [
                    {
                        "family": "Chalmers",
                        "given": [
                            "Sarah"
                        ]
                    }
                ],
                "active": true,
                "identifier": [
                    {
                        "use": "official",
                        "value": "test 1"
                    }
                ],
                "gender": "female",
                "generalPractitioner": [
                    {
                        "reference": "Practitioner/searchpractitioner1"
                    },
                    {
                        "reference": "Practitioner/searchpractitioner2"
                    }
                ]
            },
            "request": {
                "method": "PUT",
                "url": "Patient/searchpatient1"
            }
        },
        {
            "resource": {
                "resourceType": "Patient",
                "id": "searchpatient2",
                "name": [
                    {
                        "family": "Chalmers",
                        "given": [
                            "Jon"
                        ]
                    }
                ],
                "active": true,
                "identifier": [
                    {
                        "use": "official",
                        "value": "test 2"
                    }
                ],
                "birthDate": "1987-02-20",
                "gender": "male",
                "generalPractitioner": {
                    "reference": "Practitioner/searchpractitioner2"
                }
            },
            "request": {
                "method": "PUT",
                "url": "Patient/searchpatient2"
            }
        },
        {
            "resource": {
                "resourceType": "Patient",
                "id": "searchpatient3",
                "name": [
                    {
                        "family": "Chalmers",
                        "given": [
                            "jon"
                        ]
                    }
                ],
                "address": [
                    {
                        "line": [
                            "Dismal Drive"
                        ]
                    }
                ],
                "active": true,
                "birthDate": "1975-01-12",
                "gender": "male",
                "generalPractitioner": {
                    "reference": "Practitioner/searchpractitioner3"
                }
            },
            "request": {
                "method": "PUT",
                "url": "Patient/searchpatient3"
            }
        },
        {
            "resource": {
                "resourceType": "Patient",
                "id": "searchpatient4",
                "name": [
                    {
                        "family": "Chalmers",
                        "given": [
                            "Jonathon"
                        ]
                    }
                ],
                "address": [
                    {
                        "line": [
                            "Pleasant Meadows"
                        ]
                    }
                ],
                "birthDate": "2000-12-23",
                "gender": "female"
            },
            "request": {
                "method": "PUT",
                "url": "Patient/searchpatient4"
            }
        },
        {
            "resource": {
                "resourceType": "Encounter",
                "status": "planned",
                "class": {
                    "system": "system",
                    "code": "code"
                },
                "subject": {
                    "reference": "Patient/searchpatient2"
                }
            },
            "request": {
                "method": "POST",
                "url": "Encounter"
            }
        },
        {
            "resource": {
                "resourceType": "Encounter",
                "status": "arrived",
                "class": {
                    "system": "system",
                    "code": "code"
                },
                "subject": {
                    "reference": "Patient/searchpatient3"
                }
            },
            "request": {
                "method": "POST",
                "url": "Encounter"
            }
        },
        {
            "resource": {
                "resourceType": "Observation",
                "id": "searchobservation1",
                "status": "amended",
                "code": {
                    "coding": [
                        {
                            "system": "LOINC",
                            "code": "2823-3"
                        }
                    ]
                },
                "valueQuantity": {
                    "value": 9.0
                }
            },
            "request": {
                "method": "PUT",
                "url": "Observation/searchobservation1"
            }
        },
        {
            "resource": {
                "resourceType": "Observation",
                "id": "searchobservation2",
                "status": "amended",
                "code": {
                    "coding": [
                        {
                            "system": "LOINC",
                            "code": "2823-3"
                        }
                    ]
                },
                "valueQuantity": {
                    "value": 10.0
                },
                "subject": {
                    "reference": "Patient/searchpatient2"
                }
            },
            "request": {
                "method": "PUT",
                "url": "Observation/searchobservation2"
            }
        },
        {
            "resource": {
                "resourceType": "Observation",
                "status": "amended",
                "code": {
                    "coding": [
                        {
                            "system": "system",
                            "code": "527"
                        }
                    ]
                },
                "valueQuantity": {
                    "value": 12.0
                },
                "subject": {
                    "reference": "Patient/searchpatient1"
                }
            },
            "request": {
                "method": "POST",
                "url": "Observation"
            }
        },
        {
            "resource": {
                "resourceType": "DiagnosticReport",
                "status": "final",
                "code": {
                    "coding": [
                        {
                            "system": "system",
                            "code": "code"
                        }
                    ]
                },
                "subject": {
                    "reference": "Patient/searchpatient1"
                },
                "result": {
                    "reference": "Observation/searchobservation1"
                }
            },
            "request": {
                "method": "POST",
                "url": "DiagnosticReport"
            }
        },
        {
            "resource": {
                "resourceType": "DiagnosticReport",
                "status": "partial",
                "code": {
                    "coding": [
                        {
                            "system": "system",
                            "code": "code"
                        }
                    ]
                },
                "subject": {
                    "reference": "Patient/searchpatient2"
                },
                "result": {
                    "reference": "Observation/searchobservation2"
                }
            },
            "request": {
                "method": "POST",
                "url": "DiagnosticReport"
            }
        },
        {
            "resource": {
                "resourceType": "Practitioner",
                "id": "searchpractitioner1",
                "name": [
                    {
                        "given": [
                            "Sarah"
                        ]
                    }
                ],
                "address": [
                    {
                        "state": "VT"
                    }
                ]
            },
            "request": {
                "method": "PUT",
                "url": "Practitioner/searchpractitioner1"
            }
        },
        {
            "resource": {
                "resourceType": "Practitioner",
                "id": "searchpractitioner2",
                "name": [
                    {
                        "given": [
                            "Bob"
                        ]
                    }
                ],
                "address": [
                    {
                        "state": "WA"
                    }
                ]
            },
            "request": {
                "method": "PUT",
                "url": "Practitioner/searchpractitioner2"
            }
        },
        {
            "resource": {
                "resourceType": "Practitioner",
                "id": "searchpractitioner3",
                "name": [
                    {
                        "given": [
                            "janedoe"
                        ]
                    }
                ],
                "address": [
                    {
                        "state": "CA"
                    }
                ]
            },
            "request": {
                "method": "PUT",
                "url": "Practitioner/searchpractitioner3"
            }
        },
        {
            "resource": {
                "resourceType": "AuditEvent",
                "type": {
                    "system": "system",
                    "code": "code"
                },
                "recorded": "2021-05-28T00:00:00.000",
                "agent": [
                    {
                        "who": {
                            "reference": "Practitioner/searchpractitioner3"
                        }
                    }
                ],
                "source": {
                    "observer": {
                        "reference": "Patient/searchpatient2"
                    }
                },
                "entity": [
                    {
                        "what": {
                            "reference": "Observation/searchobservation2"
                        }
                    }
                ]
            },
            "request": {
                "method": "POST",
                "url": "AuditEvent"
            }
        }
    ]
}